cnt,exercises,samples,ACC X, ACC Y, ACC Z, GYR X, GYR Y, GYR Z, MAG X, MAG Y, MAG Z
153,1,1,-922,-132,-345,-4,-27,0,-306,306,469
154,1,1,-923,-132,-349,-6,-24,0,-300,309,462
156,1,1,-923,-131,-347,-4,-35,0,-304,315,468
157,1,1,-922,-131,-344,-5,-28,0,-304,309,463
159,1,1,-923,-131,-343,-4,-28,0,-300,309,456
160,1,1,-923,-132,-345,-4,-26,0,-307,306,468
162,1,1,-922,-136,-350,-5,-60,27,-304,307,460
163,1,1,-951,-134,-393,4,-174,59,-315,310,459
165,1,1,-925,-122,-289,-10,-150,51,-313,300,447
166,1,1,-949,-114,-291,0,-112,42,-306,316,438
168,1,1,-944,-119,-289,-11,29,-16,-306,307,439
169,1,1,-936,-125,-307,30,21,-48,-304,315,445
171,1,1,-933,-126,-302,2,54,-23,-304,306,453
173,1,1,-946,-135,-347,19,-113,-26,-309,304,457
174,1,1,-931,-133,-303,28,-135,-18,-301,306,450
176,1,1,-964,-124,-302,15,-100,-9,-307,304,439
177,1,1,-952,-138,-310,35,-150,-23,-301,304,438
179,1,1,-958,-141,-288,42,-19,-25,-306,315,447
180,1,1,-970,-158,-332,65,-28,-37,-298,309,441
182,1,1,-932,-154,-275,85,-119,-61,-297,316,438
183,1,1,-982,-191,-257,90,-151,-23,-300,321,426
185,1,1,-966,-179,-186,51,-14,-98,-300,307,435
186,1,1,-979,-186,-197,49,-8,-101,-295,312,432
188,1,1,-944,-187,-190,16,-31,-116,-291,321,433
189,1,1,-929,-210,-208,6,-12,-115,-289,324,448
191,1,1,-892,-234,-232,-4,-46,-79,-283,325,439
192,1,1,-892,-246,-256,-4,-39,-64,-280,319,445
194,1,1,-888,-248,-261,4,-25,-50,-276,324,448
195,1,1,-886,-266,-274,18,-38,-24,-268,322,445
197,1,1,-914,-265,-260,15,-13,1,-270,322,438
198,1,1,-969,-284,-235,18,-44,-10,-265,330,451
200,1,1,-932,-257,-241,8,-65,-23,-267,331,451
201,1,1,-970,-291,-217,11,-63,-34,-277,325,444
203,1,1,-887,-257,-242,-18,0,-49,-262,331,447
204,1,1,-932,-297,-262,-2,-15,-30,-267,321,454
206,1,1,-840,-295,-262,18,-77,-12,-262,325,442
207,1,1,-852,-289,-268,20,-42,0,-253,333,450
209,1,1,-839,-274,-186,6,-36,39,-264,321,454
210,1,1,-850,-266,-217,3,-60,75,-267,325,442
212,1,1,-874,-249,-178,-23,-44,87,-276,316,441
214,1,1,-939,-261,-223,-30,-2,100,-276,334,438
215,1,1,-903,-235,-216,-32,-71,127,-274,327,448
217,1,1,-804,-207,-243,-14,-23,151,-285,325,442
218,1,1,-951,-208,-186,-31,2,147,-291,315,433
220,1,1,-961,-183,-232,-2,-74,168,-304,321,433
221,1,1,-987,-157,-201,-13,-30,145,-307,319,429
223,1,1,-1018,-149,-196,-16,-39,107,-309,315,426
224,1,1,-1036,-137,-193,-13,-107,107,-313,310,427
226,1,1,-911,-122,-228,-9,-4,-21,-316,324,430
227,1,1,-954,-128,-214,-10,-33,2,-316,316,433
229,1,1,-1035,-128,-253,-31,-83,57,-307,318,421
230,1,1,-1080,-140,-269,-23,-78,9,-316,313,421
231,1,1,-959,-127,-187,-23,-78,31,-318,313,421
309,1,2,-950,-132,-256,-2,-32,0,-307,306,445
310,1,2,-950,-130,-259,-3,-26,0,-309,316,438
311,1,2,-954,-129,-263,-2,-32,0,-307,324,439
312,1,2,-951,-132,-253,2,-65,4,-313,307,444
314,1,2,-962,-131,-271,4,-53,3,-303,307,436
315,1,2,-967,-124,-239,7,-138,22,-304,315,433
316,1,2,-969,-146,-233,2,-161,16,-310,316,435
317,1,2,-932,-122,-225,23,-155,-4,-310,319,429
319,1,2,-1003,-132,-236,-23,30,-2,-321,315,430
320,1,2,-963,-131,-250,-7,9,-24,-312,316,432
321,1,2,-973,-131,-259,5,-57,0,-310,315,426
322,1,2,-1009,-145,-228,18,-95,7,-310,313,429
324,1,2,-987,-133,-177,11,-45,-3,-306,321,417
325,1,2,-968,-130,-202,9,-12,-56,-313,316,436
326,1,2,-966,-136,-193,0,-17,-37,-304,325,421
327,1,2,-971,-142,-196,5,-73,-19,-316,321,429
329,1,2,-997,-159,-240,-2,-36,-58,-307,318,418
330,1,2,-1005,-173,-241,15,-20,-59,-304,327,423
331,1,2,-1010,-177,-245,28,-33,-86,-303,315,426
332,1,2,-963,-174,-244,42,-38,-114,-313,319,430
334,1,2,-965,-188,-194,46,-41,-123,-306,315,436
335,1,2,-926,-178,-187,40,-51,-113,-297,319,427
336,1,2,-953,-204,-153,37,-59,-77,-292,321,433
337,1,2,-910,-196,-143,10,-10,-112,-285,321,430
339,1,2,-930,-228,-172,-18,42,-75,-286,319,433
340,1,2,-887,-225,-232,-10,16,-55,-280,321,438
341,1,2,-946,-259,-191,-9,-25,-26,-283,325,442
342,1,2,-921,-252,-204,-14,7,-70,-286,322,438
344,1,2,-968,-256,-218,-11,-2,-45,-273,331,444
345,1,2,-924,-257,-228,-3,-41,-44,-274,325,447
346,1,2,-890,-254,-234,6,-44,-21,-271,322,444
347,1,2,-947,-277,-207,4,-22,-28,-277,322,445
349,1,2,-896,-259,-204,-3,-37,-1,-277,322,442
350,1,2,-907,-258,-199,-14,-8,-9,-274,331,439
351,1,2,-887,-263,-193,-7,-48,26,-271,325,450
352,1,2,-900,-248,-186,-22,-16,35,-277,319,436
354,1,2,-918,-250,-194,-22,-107,70,-277,319,444
355,1,2,-930,-253,-212,-28,-82,68,-280,325,438
356,1,2,-910,-233,-192,-31,-58,70,-285,330,430
357,1,2,-897,-221,-199,-26,-74,99,-294,328,430
359,1,2,-924,-216,-188,-20,-85,133,-297,325,423
360,1,2,-929,-196,-180,-25,-105,143,-304,318,420
361,1,2,-923,-178,-195,-24,-77,158,-297,319,423
362,1,2,-955,-182,-183,-16,-38,151,-310,324,421
364,1,2,-995,-150,-178,-7,-67,137,-312,319,417
365,1,2,-986,-140,-157,-19,-26,112,-312,316,411
366,1,2,-949,-123,-169,-22,-21,116,-330,327,412
367,1,2,-974,-129,-162,-18,-28,117,-316,322,418
369,1,2,-1116,-117,-212,5,37,-93,-318,322,409
370,1,2,-918,-116,-157,-14,-9,30,-319,316,400
371,1,2,-896,-106,-225,-7,-37,-34,-318,327,423
372,1,2,-876,-112,-148,6,-74,-61,-324,322,412
373,1,2,-1042,-128,-115,-11,-58,6,-307,322,412
439,1,3,-962,-127,-249,-1,-28,-1,-300,324,432
440,1,3,-999,-116,-283,30,-142,15,-304,321,433
441,1,3,-965,-142,-190,4,-119,21,-310,312,427
442,1,3,-938,-108,-250,7,-95,-5,-318,316,429
443,1,3,-957,-135,-201,0,-84,1,-310,310,427
444,1,3,-1012,-131,-200,-5,-109,36,-313,315,418
445,1,3,-978,-118,-190,-1,-71,23,-318,318,414
447,1,3,-989,-129,-175,-5,-28,-15,-315,325,418
448,1,3,-972,-127,-182,-9,0,-41,-312,321,417
449,1,3,-958,-116,-190,-18,3,-31,-319,316,418
450,1,3,-1041,-144,-184,-4,-49,-11,-319,310,418
451,1,3,-1024,-138,-200,-5,-25,-84,-316,310,418
452,1,3,-974,-135,-214,-4,-12,-81,-315,322,421
453,1,3,-1013,-146,-239,5,-38,-62,-307,313,417
454,1,3,-989,-172,-223,32,-88,-78,-303,331,415
456,1,3,-957,-174,-202,35,2,-139,-297,318,415
457,1,3,-927,-183,-203,39,1,-120,-298,315,424
458,1,3,-970,-185,-198,42,-13,-144,-292,324,429
459,1,3,-912,-188,-198,46,-7,-106,-295,327,430
460,1,3,-949,-212,-173,49,-51,-60,-285,316,429
461,1,3,-944,-204,-156,37,-51,-104,-292,331,426
462,1,3,-857,-200,-136,25,-25,-75,-283,324,424
464,1,3,-907,-229,-158,0,-34,-40,-289,325,418
465,1,3,-937,-230,-155,-10,11,-54,-288,327,435
466,1,3,-951,-245,-176,-11,-3,-13,-283,319,435
467,1,3,-1008,-272,-174,-4,-65,-16,-277,330,424
468,1,3,-934,-238,-193,-11,-26,-63,-283,333,427
469,1,3,-936,-256,-203,-9,-30,-35,-276,331,426
470,1,3,-902,-258,-163,-10,-28,-53,-288,330,433
471,1,3,-873,-265,-188,-5,-30,-9,-271,336,427
473,1,3,-908,-272,-171,11,-26,2,-276,331,429
474,1,3,-858,-234,-160,0,-11,4,-277,324,426
475,1,3,-912,-249,-172,-2,-30,58,-283,334,430
476,1,3,-959,-260,-162,-3,-25,50,-279,328,427
477,1,3,-901,-225,-153,-20,2,35,-276,330,420
478,1,3,-920,-238,-162,-14,-49,84,-280,328,427
479,1,3,-931,-227,-147,-29,-45,75,-291,333,424
481,1,3,-919,-210,-176,-39,-60,95,-291,322,423
482,1,3,-896,-201,-187,-41,-43,110,-297,324,411
483,1,3,-905,-196,-198,-37,-35,140,-297,322,423
484,1,3,-943,-193,-183,-29,-31,145,-303,327,414
485,1,3,-927,-172,-208,-17,-51,147,-300,315,418
486,1,3,-943,-164,-168,-19,0,145,-310,318,418
487,1,3,-954,-131,-171,-32,17,137,-307,319,421
488,1,3,-987,-133,-184,-19,-5,142,-313,321,418
490,1,3,-1044,-117,-186,-11,-39,118,-324,312,415
491,1,3,-1092,-132,-193,-9,-49,76,-324,319,403
492,1,3,-1258,-118,-207,4,-17,-91,-324,315,405
493,1,3,-908,-103,-160,-11,11,-5,-318,316,414
494,1,3,-917,-120,-129,-16,25,-32,-313,313,415
495,1,3,-861,-99,-231,0,23,-100,-313,321,411
496,1,3,-967,-130,-198,-1,4,-23,-315,316,418
497,1,3,-1050,-134,-212,11,56,-34,-310,309,411
595,1,4,-962,-129,-233,-9,-84,16,-312,324,435
596,1,4,-944,-124,-231,4,-73,0,-315,309,432
597,1,4,-961,-128,-258,13,-102,-8,-318,322,435
598,1,4,-967,-124,-224,0,-86,-1,-310,324,429
599,1,4,-962,-129,-235,-2,-108,4,-310,319,427
600,1,4,-979,-125,-214,-3,-91,11,-313,319,432
601,1,4,-992,-137,-207,-2,-77,-9,-316,324,427
603,1,4,-995,-134,-218,-13,-46,11,-313,322,424
604,1,4,-1019,-142,-214,3,-56,-21,-315,319,421
605,1,4,-1020,-157,-184,14,-97,-23,-315,318,418
606,1,4,-1040,-148,-188,0,-10,-100,-304,324,421
607,1,4,-981,-128,-214,3,-6,-91,-306,321,424
608,1,4,-1029,-173,-169,4,-4,-105,-309,318,430
609,1,4,-953,-146,-219,2,-29,-134,-298,328,421
610,1,4,-935,-172,-221,11,-29,-92,-294,319,429
612,1,4,-935,-192,-229,43,-86,-93,-298,325,427
613,1,4,-942,-198,-218,42,-39,-107,-297,325,421
614,1,4,-914,-198,-196,47,-4,-109,-294,324,421
615,1,4,-900,-201,-196,43,6,-79,-291,328,418
616,1,4,-1005,-225,-173,45,1,-75,-286,322,429
617,1,4,-938,-218,-143,29,-16,-97,-286,330,427
618,1,4,-943,-226,-163,27,-41,-51,-288,330,430
620,1,4,-953,-236,-197,6,0,-116,-276,327,435
621,1,4,-934,-263,-187,14,-2,-86,-276,333,429
622,1,4,-941,-274,-159,4,-2,-102,-273,325,441
623,1,4,-860,-256,-164,-12,-21,-93,-265,321,441
624,1,4,-863,-275,-214,-1,-9,-49,-268,333,444
625,1,4,-893,-289,-190,-9,4,-65,-259,333,442
626,1,4,-864,-268,-188,-14,-14,-28,-264,342,442
627,1,4,-890,-297,-214,2,-48,25,-258,334,447
629,1,4,-874,-275,-212,-9,-56,25,-264,333,439
630,1,4,-903,-299,-187,3,-35,27,-262,330,430
631,1,4,-882,-274,-176,-7,-42,48,-259,333,435
632,1,4,-883,-263,-184,-22,-30,53,-270,331,432
633,1,4,-854,-251,-193,-25,-23,73,-276,324,436
634,1,4,-897,-270,-191,-21,-28,123,-277,331,441
635,1,4,-926,-253,-183,-10,-93,135,-282,327,436
637,1,4,-953,-237,-188,-28,-39,153,-283,330,430
638,1,4,-948,-205,-197,-35,-28,135,-283,331,435
639,1,4,-971,-198,-180,-30,-68,184,-301,322,423
640,1,4,-1002,-200,-193,-12,-88,151,-300,328,424
641,1,4,-984,-185,-168,-21,-21,98,-300,319,426
642,1,4,-978,-163,-167,-32,2,97,-307,319,427
643,1,4,-997,-168,-173,-17,-46,112,-307,321,426
644,1,4,-957,-148,-176,-23,-44,83,-309,313,415
646,1,4,-993,-152,-196,-16,-18,95,-310,316,418
647,1,4,-980,-136,-223,-9,-37,77,-310,315,412
648,1,4,-982,-134,-202,-2,-20,63,-318,312,412
649,1,4,-954,-128,-194,2,-23,51,-322,318,423
650,1,4,-1134,-124,-140,-11,-113,32,-322,321,408
651,1,4,-964,-105,-141,-18,-39,-42,-324,319,415
652,1,4,-943,-109,-165,-48,16,7,-315,319,409
653,1,4,-980,-127,-202,-21,-7,3,-319,313,415
719,1,5,-955,-111,-220,0,-102,16,-307,318,438
720,1,5,-966,-123,-250,-10,-74,4,-306,315,427
721,1,5,-978,-125,-244,4,-123,3,-313,319,421
722,1,5,-963,-117,-185,-7,-93,2,-318,322,420
723,1,5,-951,-123,-213,-16,-58,1,-310,319,421
724,1,5,-992,-124,-224,0,-82,15,-310,310,423
726,1,5,-919,-115,-179,16,-79,-32,-318,318,415
727,1,5,-999,-136,-162,9,-81,4,-316,319,411
728,1,5,-1034,-143,-190,4,13,-109,-310,325,421
729,1,5,-944,-119,-205,0,49,-99,-316,312,427
730,1,5,-1038,-162,-199,16,-39,-43,-310,313,429
731,1,5,-1015,-157,-247,30,-47,-104,-306,325,420
733,1,5,-984,-169,-238,45,-21,-136,-297,321,424
734,1,5,-978,-191,-207,59,-57,-126,-300,327,421
735,1,5,-952,-183,-186,44,-36,-151,-300,328,423
736,1,5,-917,-201,-170,56,-49,-119,-285,325,417
737,1,5,-918,-193,-156,39,-56,-129,-291,322,432
739,1,5,-867,-206,-129,1,6,-91,-288,325,430
740,1,5,-953,-238,-163,-2,11,-51,-280,327,432
741,1,5,-926,-251,-199,-4,-30,-76,-279,331,438
742,1,5,-978,-266,-210,-11,-18,-53,-277,336,438
743,1,5,-973,-269,-187,4,-42,-64,-277,330,436
744,1,5,-925,-268,-184,9,-26,-92,-271,330,433
746,1,5,-917,-261,-197,-2,-9,-63,-265,334,432
747,1,5,-917,-271,-200,3,-17,-60,-271,337,441
748,1,5,-911,-290,-160,2,-15,-38,-273,339,438
749,1,5,-892,-270,-183,-1,-25,-56,-268,331,430
750,1,5,-897,-288,-164,-11,-11,-29,-265,336,435
751,1,5,-902,-285,-171,-16,-39,-7,-264,331,444
753,1,5,-877,-287,-173,-23,-19,18,-262,340,438
754,1,5,-849,-269,-195,-22,-53,38,-265,333,438
755,1,5,-901,-289,-197,-16,-46,84,-273,330,430
756,1,5,-895,-280,-191,-23,-18,60,-268,333,436
757,1,5,-880,-253,-200,-19,-42,96,-282,327,429
758,1,5,-916,-254,-199,-18,-46,128,-267,324,424
760,1,5,-880,-224,-168,-9,-73,127,-286,325,423
761,1,5,-930,-214,-191,-23,1,140,-282,328,420
762,1,5,-971,-207,-165,-19,-41,141,-282,324,426
763,1,5,-958,-190,-155,-23,-48,127,-295,319,424
764,1,5,-949,-177,-180,-32,-24,135,-298,325,424
766,1,5,-964,-159,-169,-33,-46,114,-301,318,427
767,1,5,-943,-149,-184,-39,-1,109,-318,316,420
768,1,5,-944,-141,-201,-39,8,129,-319,315,415
769,1,5,-961,-135,-194,-30,18,116,-315,324,418
770,1,5,-943,-130,-214,-21,-4,128,-313,319,424
771,1,5,-1304,-179,-226,-12,-102,109,-321,315,415
773,1,5,-870,-110,-161,-4,-30,30,-319,313,423
774,1,5,-870,-102,-192,-4,11,-30,-316,318,420
775,1,5,-885,-110,-195,-4,25,-14,-312,319,426
776,1,5,-1106,-150,-200,-4,33,11,-313,318,426
777,1,5,-958,-113,-257,-17,55,12,-318,318,430
778,1,5,-979,-125,-220,-7,-11,17,-304,321,426
779,1,5,-942,-121,-202,0,-21,-7,-318,321,433
854,1,6,-963,-114,-240,-8,-93,21,-321,319,433
855,1,6,-949,-123,-202,-12,-75,23,-319,313,436
856,1,6,-987,-112,-227,-2,-82,26,-318,312,429
857,1,6,-955,-114,-209,1,-102,23,-324,321,432
858,1,6,-987,-105,-195,-3,-107,33,-319,313,424
859,1,6,-1020,-115,-167,-4,-71,7,-328,312,420
861,1,6,-1016,-123,-185,17,-81,-26,-312,321,409
862,1,6,-1036,-130,-181,30,-116,-57,-318,318,409
863,1,6,-1013,-119,-200,18,-58,-104,-315,319,412
864,1,6,-1010,-151,-174,23,-15,-102,-319,316,417
865,1,6,-956,-131,-177,15,-2,-135,-313,313,414
866,1,6,-955,-146,-193,25,-29,-107,-310,319,412
868,1,6,-928,-158,-155,13,3,-107,-304,325,424
869,1,6,-958,-183,-155,13,0,-96,-303,322,418
870,1,6,-969,-194,-173,19,-23,-65,-307,322,411
871,1,6,-1004,-191,-180,14,-16,-109,-300,316,420
872,1,6,-966,-192,-190,0,43,-103,-294,315,423
874,1,6,-955,-221,-190,18,-37,-114,-288,327,427
875,1,6,-997,-259,-192,2,46,-82,-280,328,426
876,1,6,-926,-224,-183,7,11,-123,-286,331,424
877,1,6,-945,-254,-165,3,35,-88,-288,325,432
878,1,6,-960,-253,-174,14,-53,-80,-282,331,436
879,1,6,-855,-239,-170,2,-21,-78,-280,334,441
881,1,6,-883,-263,-164,-3,-23,-42,-271,343,435
882,1,6,-892,-272,-150,-9,-23,-20,-262,336,430
883,1,6,-845,-263,-165,-14,-37,0,-274,334,441
884,1,6,-911,-271,-169,-18,-22,30,-268,333,433
885,1,6,-896,-262,-179,-23,-4,24,-271,328,424
886,1,6,-892,-253,-203,-25,0,57,-274,337,430
888,1,6,-924,-256,-204,-14,-30,84,-280,325,430
889,1,6,-921,-252,-201,-9,-21,81,-283,327,436
890,1,6,-897,-225,-196,-13,-9,98,-279,331,432
891,1,6,-934,-221,-188,-5,-44,128,-286,324,429
892,1,6,-950,-217,-174,-10,-51,140,-292,324,438
893,1,6,-942,-205,-158,-3,-86,136,-291,321,429
895,1,6,-935,-167,-150,-25,-32,142,-309,322,429
896,1,6,-997,-159,-159,-30,-52,141,-303,324,421
897,1,6,-1008,-162,-161,-37,-32,122,-313,324,412
898,1,6,-1033,-161,-164,-42,-8,98,-316,319,423
899,1,6,-1016,-156,-174,-37,-37,83,-309,321,415
901,1,6,-953,-128,-197,-33,-5,66,-325,319,415
902,1,6,-950,-129,-193,-23,-18,76,-327,316,415
903,1,6,-928,-121,-188,-22,-4,68,-319,316,415
904,1,6,-1045,-123,-167,-24,-23,89,-324,321,423
905,1,6,-1277,-134,-196,-4,-16,-55,-319,316,418
906,1,6,-872,-91,-161,-34,19,-7,-322,316,424
908,1,6,-899,-99,-181,-4,-58,-1,-322,319,417
909,1,6,-1092,-132,-169,7,-56,-21,-312,315,421
910,1,6,-927,-110,-167,2,70,-49,-322,313,414
911,1,6,-1013,-124,-214,-2,51,-2,-316,322,427
912,1,6,-950,-118,-180,-1,36,-6,-325,324,414
913,1,6,-963,-115,-192,-7,65,-25,-310,318,423
914,1,6,-985,-122,-227,-12,30,-14,-318,312,427
989,1,7,-961,-121,-236,-2,-29,0,-318,315,433
990,1,7,-968,-123,-243,0,-51,4,-309,310,432
991,1,7,-977,-121,-238,2,-88,16,-313,312,435
992,1,7,-979,-124,-240,-20,-119,36,-310,312,432
993,1,7,-971,-118,-215,0,-149,35,-312,312,430
994,1,7,-967,-110,-199,-7,-109,38,-321,321,421
995,1,7,-950,-107,-178,-13,-28,24,-319,315,420
997,1,7,-1025,-105,-226,1,-36,20,-327,324,420
998,1,7,-1029,-123,-213,25,-89,11,-324,316,424
999,1,7,-1002,-114,-183,30,-55,-18,-324,321,415
1000,1,7,-1040,-128,-164,25,-56,-32,-328,313,411
1001,1,7,-1061,-121,-151,-2,16,-144,-315,313,423
1002,1,7,-958,-95,-190,-10,44,-169,-307,319,424
1003,1,7,-987,-139,-179,-4,-10,-93,-330,319,424
1004,1,7,-997,-175,-209,9,-68,-112,-300,313,423
1006,1,7,-935,-173,-212,7,27,-124,-307,324,418
1007,1,7,-902,-183,-218,39,-30,-133,-303,327,424
1008,1,7,-893,-189,-217,35,-7,-95,-294,324,430
1009,1,7,-935,-197,-244,41,-18,-86,-298,327,438
1010,1,7,-935,-220,-167,36,11,-79,-291,321,436
1011,1,7,-950,-205,-162,28,11,-108,-282,325,432
1012,1,7,-975,-214,-175,9,20,-65,-282,325,441
1014,1,7,-930,-217,-179,-13,-16,-102,-283,330,432
1015,1,7,-950,-248,-187,-10,-25,-62,-279,325,439
1016,1,7,-971,-255,-217,-2,-70,-86,-282,324,444
1017,1,7,-898,-246,-220,-11,-27,-92,-271,325,438
1018,1,7,-941,-269,-205,-23,33,-103,-271,330,438
1019,1,7,-853,-274,-228,7,-37,-65,-271,333,442
1020,1,7,-886,-265,-253,14,-75,-44,-276,324,447
1021,1,7,-876,-276,-185,6,-24,-51,-264,340,445
1023,1,7,-846,-264,-191,-6,-12,23,-271,337,442
1024,1,7,-875,-268,-174,-11,-37,57,-265,334,450
1025,1,7,-870,-258,-171,-19,-20,60,-268,322,441
1026,1,7,-923,-253,-176,-35,-86,107,-265,328,438
1027,1,7,-955,-254,-181,-9,-204,135,-277,331,438
1028,1,7,-910,-238,-199,-28,-135,110,-282,328,423
1029,1,7,-941,-236,-178,-47,-15,114,-294,328,426
1031,1,7,-941,-216,-195,-21,-99,137,-291,327,421
1032,1,7,-949,-209,-184,-36,-14,114,-301,327,423
1033,1,7,-962,-201,-175,-12,-55,120,-304,324,420
1034,1,7,-951,-180,-173,-18,-21,105,-298,324,417
1035,1,7,-987,-180,-171,-14,-12,115,-309,328,412
1036,1,7,-975,-160,-163,-11,-24,100,-309,325,414
1037,1,7,-958,-149,-182,-10,-23,112,-318,325,418
1038,1,7,-975,-155,-176,-7,-28,102,-309,318,415
1040,1,7,-964,-116,-174,-11,-25,102,-319,315,409
1041,1,7,-1008,-131,-170,-7,-3,106,-307,318,417
1042,1,7,-1020,-113,-162,-18,9,63,-324,318,418
1043,1,7,-997,-100,-152,-21,1,57,-327,321,411
1044,1,7,-1158,-129,-193,-21,11,-2,-328,319,418
1045,1,7,-990,-101,-201,-18,51,-60,-322,318,420
1046,1,7,-929,-114,-205,-25,26,9,-310,309,427
1047,1,7,-909,-116,-193,-10,5,-16,-319,313,415
1133,1,8,-953,-127,-243,-4,-28,-9,-306,313,438
1134,1,8,-956,-125,-245,2,-21,-7,-324,312,442
1135,1,8,-952,-122,-244,4,-14,-3,-312,318,439
1136,1,8,-957,-119,-254,3,-9,-4,-312,310,436
1137,1,8,-961,-112,-258,0,-39,0,-318,312,433
1139,1,8,-948,-121,-234,-12,-36,9,-313,316,429
1140,1,8,-962,-117,-269,-8,-29,9,-315,309,444
1141,1,8,-986,-127,-250,-32,-123,41,-324,312,444
1142,1,8,-989,-127,-261,-5,-165,39,-313,313,430
1143,1,8,-963,-99,-206,9,-119,18,-322,307,417
1145,1,8,-1018,-118,-197,14,-75,43,-324,315,426
1146,1,8,-1032,-117,-192,18,-121,7,-318,322,412
1147,1,8,-1039,-119,-186,21,-122,-65,-318,318,418
1148,1,8,-984,-112,-161,-8,-9,-135,-316,312,424
1149,1,8,-967,-119,-203,-21,35,-116,-313,318,421
1150,1,8,-988,-144,-214,4,-29,-100,-318,312,429
1152,1,8,-955,-157,-210,14,-52,-131,-310,319,421
1153,1,8,-934,-172,-189,14,9,-123,-304,325,418
1154,1,8,-926,-172,-224,14,9,-121,-300,321,426
1155,1,8,-926,-178,-217,31,-27,-87,-294,322,430
1156,1,8,-966,-198,-206,37,-37,-82,-294,321,433
1158,1,8,-983,-204,-196,18,0,-85,-286,333,438
1159,1,8,-971,-219,-210,35,-25,-84,-286,318,426
1160,1,8,-973,-229,-167,18,35,-128,-285,327,436
1161,1,8,-917,-223,-208,29,-29,-117,-282,328,433
1162,1,8,-937,-266,-176,18,-47,-62,-285,331,436
1164,1,8,-804,-240,-185,0,-34,-83,-277,336,429
1165,1,8,-864,-248,-198,0,-44,-44,-273,328,433
1166,1,8,-886,-278,-168,-2,-55,-35,-271,336,435
1167,1,8,-817,-281,-181,0,-56,2,-270,334,430
1168,1,8,-920,-268,-225,0,-31,-12,-271,330,433
1170,1,8,-893,-266,-174,-5,-29,22,-265,327,438
1171,1,8,-876,-252,-169,-14,0,25,-270,334,432
1172,1,8,-892,-256,-158,-16,-51,83,-277,334,433
1173,1,8,-871,-243,-152,-23,-62,86,-280,331,427
1174,1,8,-875,-240,-169,-38,-6,113,-270,325,424
1176,1,8,-913,-217,-186,-42,-51,131,-288,330,438
1177,1,8,-965,-217,-193,-35,-67,163,-283,319,421
1178,1,8,-990,-208,-187,-34,-55,133,-294,327,433
1179,1,8,-982,-200,-195,-32,-33,113,-298,327,420
1180,1,8,-972,-181,-194,-31,-15,97,-298,319,423
1181,1,8,-954,-172,-191,-14,-30,106,-304,318,411
1183,1,8,-951,-154,-187,-15,-22,120,-315,321,421
1184,1,8,-966,-152,-190,-20,-9,105,-316,313,415
1185,1,8,-981,-135,-197,-16,8,100,-316,313,426
1186,1,8,-1002,-137,-199,-4,-38,102,-319,312,418
1187,1,8,-1002,-130,-187,-2,-27,74,-321,312,420
1189,1,8,-1007,-120,-181,4,-58,87,-324,319,420
1190,1,8,-989,-102,-164,-9,-46,39,-324,315,414
1191,1,8,-1030,-103,-185,-17,-43,28,-318,312,409
1192,1,8,-1074,-107,-170,-13,-30,-42,-327,313,414
1193,1,8,-903,-94,-155,-32,16,-25,-324,316,415
1194,1,8,-955,-110,-201,-25,9,-28,-318,321,421
1262,1,9,-958,-122,-231,-3,-28,0,-316,316,432
1263,1,9,-958,-120,-229,-4,-25,0,-310,316,439
1264,1,9,-966,-122,-244,-3,-44,5,-318,313,433
1265,1,9,-976,-121,-227,-13,-83,18,-312,312,432
1266,1,9,-980,-116,-244,-16,-73,32,-316,315,424
1267,1,9,-952,-128,-224,-15,-66,33,-312,321,427
1269,1,9,-1005,-106,-209,-14,-81,49,-313,312,426
1270,1,9,-991,-106,-196,-17,-59,67,-315,312,427
1271,1,9,-1029,-110,-206,1,-95,68,-327,310,423
1272,1,9,-969,-105,-179,10,-56,-7,-322,312,423
1273,1,9,-943,-80,-178,7,-90,4,-330,310,415
1274,1,9,-1037,-107,-155,11,-130,11,-324,315,412
1276,1,9,-986,-113,-213,-7,-26,-106,-325,307,420
1277,1,9,-1017,-126,-201,-2,-5,-82,-324,315,414
1278,1,9,-1021,-140,-205,18,-37,-98,-327,319,412
1279,1,9,-984,-131,-206,25,-38,-142,-315,319,421
1280,1,9,-937,-149,-198,39,-20,-119,-315,321,412
1282,1,9,-977,-161,-180,22,9,-156,-310,319,423
1283,1,9,-978,-195,-182,39,-30,-135,-309,318,420
1284,1,9,-992,-208,-163,32,-2,-144,-301,322,426
1285,1,9,-928,-188,-152,-6,69,-163,-298,324,429
1286,1,9,-910,-191,-145,5,15,-146,-292,324,427
1287,1,9,-858,-214,-128,10,-58,-110,-286,333,436
1289,1,9,-935,-252,-184,-2,-113,-47,-282,330,427
1290,1,9,-1009,-282,-198,7,-119,-50,-282,330,430
1291,1,9,-899,-256,-233,-8,-41,-58,-282,334,427
1292,1,9,-948,-271,-163,4,-13,-31,-271,333,418
1293,1,9,-873,-241,-170,-1,-58,-46,-273,319,418
1294,1,9,-825,-239,-149,1,-35,14,-280,325,417
1296,1,9,-935,-253,-156,-3,-53,43,-277,339,417
1297,1,9,-938,-249,-143,-2,-48,50,-279,334,411
1298,1,9,-949,-234,-141,-20,-17,49,-279,331,409
1299,1,9,-957,-238,-138,-20,-49,65,-288,334,418
1300,1,9,-928,-231,-121,-32,-63,56,-289,336,408
1301,1,9,-900,-212,-139,-43,-14,75,-288,337,418
1303,1,9,-911,-208,-146,-39,-65,128,-300,331,415
1304,1,9,-898,-195,-177,-48,-7,130,-303,322,417
1305,1,9,-925,-190,-192,-45,56,144,-306,321,409
1306,1,9,-991,-182,-196,-37,36,156,-306,324,412
1307,1,9,-994,-169,-192,-18,-4,132,-306,319,412
1309,1,9,-1010,-147,-177,-2,-28,119,-316,313,418
1310,1,9,-1007,-132,-168,-5,-23,98,-313,321,406
1311,1,9,-1029,-127,-152,-11,-24,84,-312,313,420
1312,1,9,-1016,-118,-139,-8,-74,72,-327,309,415
1313,1,9,-1006,-102,-119,-23,-93,63,-319,316,415
1314,1,9,-957,-101,-150,-28,-68,54,-319,316,408
1316,1,9,-1110,-117,-242,-25,80,-65,-321,315,412
1317,1,9,-935,-116,-193,-8,9,-30,-321,316,418
1318,1,9,-964,-114,-169,2,-42,-5,-316,315,411
1319,1,9,-882,-96,-154,-1,-23,-49,-318,319,409
1320,1,9,-934,-105,-151,-16,-16,0,-322,315,405
1321,1,9,-1133,-136,-198,-6,-9,-20,-321,316,415
1322,1,9,-961,-113,-188,-28,39,6,-319,318,415
1377,1,10,-961,-122,-216,-3,-34,1,-304,312,429
1378,1,10,-960,-123,-214,-2,-31,0,-310,315,421
1379,1,10,-961,-122,-217,-4,-23,0,-310,316,424
1380,1,10,-963,-123,-219,-2,-30,0,-316,319,426
1382,1,10,-972,-122,-231,-2,-44,4,-315,316,427
1383,1,10,-971,-120,-228,0,-84,20,-303,312,427
1384,1,10,-958,-121,-201,0,-85,20,-313,315,429
1385,1,10,-962,-115,-201,6,-58,11,-316,322,418
1387,1,10,-978,-112,-221,-2,-91,16,-312,307,423
1388,1,10,-1000,-114,-214,9,-102,0,-312,307,418
1389,1,10,-995,-121,-174,12,-73,20,-316,316,412
1390,1,10,-989,-109,-170,11,-57,25,-313,319,411
1392,1,10,-1027,-126,-212,13,39,-55,-322,312,414
1393,1,10,-1028,-131,-176,7,60,-119,-322,315,415
1394,1,10,-1021,-132,-200,30,-59,-81,-316,318,421
1395,1,10,-1041,-151,-189,39,-88,-86,-313,313,411
1397,1,10,-961,-151,-173,35,-36,-147,-307,313,421
1398,1,10,-951,-167,-186,29,-16,-157,-301,318,418
1399,1,10,-954,-191,-157,37,-35,-141,-303,324,418
1400,1,10,-830,-172,-153,32,-57,-128,-295,321,421
1402,1,10,-884,-228,-145,39,-25,-74,-291,322,429
1403,1,10,-888,-202,-174,14,-20,-93,-286,321,427
1404,1,10,-890,-219,-175,14,-14,-59,-291,330,427
1405,1,10,-958,-258,-151,21,-33,-17,-282,324,424
1407,1,10,-863,-223,-171,11,-54,-16,-279,333,433
1408,1,10,-880,-231,-157,1,-28,-32,-276,324,424
1409,1,10,-950,-253,-146,-2,-58,24,-280,333,427
1410,1,10,-957,-249,-172,-5,-58,-25,-276,327,415
1412,1,10,-949,-248,-152,-11,-50,0,-288,324,427
1413,1,10,-877,-222,-158,-22,-42,-11,-283,331,424
1414,1,10,-899,-238,-159,-31,-18,29,-282,321,426
1415,1,10,-893,-236,-164,-23,-27,37,-273,330,421
1417,1,10,-949,-239,-195,-25,-27,81,-294,325,426
1418,1,10,-923,-222,-171,-20,-37,81,-289,327,414
1419,1,10,-930,-207,-158,-23,-58,94,-285,322,415
1420,1,10,-887,-187,-149,-28,-61,109,-301,328,421
1422,1,10,-972,-181,-151,-50,0,113,-294,325,421
1423,1,10,-1016,-185,-167,-51,-26,112,-300,316,420
1424,1,10,-1015,-178,-178,-33,-91,113,-304,324,417
1425,1,10,-996,-161,-192,-35,-60,84,-315,325,411
1427,1,10,-975,-153,-183,-28,1,56,-322,319,415
1428,1,10,-953,-144,-209,-16,-24,65,-310,313,415
1429,1,10,-967,-139,-193,-2,19,53,-324,307,406
1430,1,10,-975,-124,-187,-1,12,53,-303,315,414
1432,1,10,-962,-119,-158,-2,4,42,-321,324,412
1433,1,10,-930,-106,-141,-12,-8,37,-319,318,409
1434,1,10,-1025,-108,-146,-23,-60,48,-321,322,418
1435,1,10,-1181,-134,-217,-19,60,-71,-318,322,412
1437,1,10,-983,-119,-208,-20,-13,1,-315,310,412
1438,1,10,-882,-109,-191,-9,-43,-7,-306,316,415
1439,1,10,-1009,-122,-187,-9,-84,40,-322,316,414
1440,1,10,-1009,-106,-184,-8,-51,-2,-318,318,406
1441,1,10,-997,-119,-206,-17,-74,25,-313,313,403
1502,1,11,-960,-121,-220,-4,-26,0,-313,313,429
1503,1,11,-960,-122,-220,-3,-24,0,-315,315,424
1504,1,11,-962,-121,-223,-3,-27,0,-307,319,418
1505,1,11,-963,-122,-223,-4,-35,1,-312,313,436
1506,1,11,-963,-121,-231,0,-56,7,-313,324,423
1507,1,11,-966,-124,-210,-4,-41,9,-309,316,433
1508,1,11,-1019,-105,-259,-26,-81,31,-310,313,429
1509,1,11,-1001,-142,-228,-1,-179,60,-319,322,424
1510,1,11,-942,-94,-177,3,-144,44,-321,310,424
1512,1,11,-1033,-112,-151,5,-77,54,-324,310,411
1513,1,11,-1011,-91,-188,18,-73,-12,-313,316,408
1514,1,11,-923,-108,-149,16,-126,-21,-324,319,414
1515,1,11,-982,-109,-163,0,-76,-53,-325,318,408
1516,1,11,-951,-102,-201,-13,-20,-62,-316,310,409
1517,1,11,-1005,-123,-205,6,-61,-30,-324,306,411
1518,1,11,-990,-145,-188,30,-72,-51,-319,318,408
1519,1,11,-1001,-135,-183,22,-2,-104,-310,307,412
1521,1,11,-1036,-160,-161,44,-16,-88,-312,316,415
1522,1,11,-995,-135,-182,38,-42,-140,-313,313,414
1523,1,11,-990,-174,-167,44,-18,-107,-307,321,409
1524,1,11,-989,-179,-133,32,1,-149,-303,318,420
1525,1,11,-921,-168,-132,28,14,-140,-303,321,418
1526,1,11,-958,-180,-147,14,-6,-108,-301,327,418
1527,1,11,-1021,-211,-155,11,-23,-120,-298,333,420
1528,1,11,-953,-216,-142,4,-42,-128,-289,334,426
1529,1,11,-993,-238,-179,15,-100,-135,-295,334,424
1531,1,11,-908,-266,-167,38,-189,-89,-277,334,420
1532,1,11,-780,-245,-180,13,-35,-82,-274,327,415
1533,1,11,-845,-254,-131,-8,-11,-23,-274,337,420
1534,1,11,-815,-244,-137,6,-53,7,-277,337,417
1535,1,11,-855,-259,-123,-7,9,34,-270,328,424
1536,1,11,-931,-248,-129,-12,-25,68,-280,330,426
1537,1,11,-922,-238,-127,-6,-70,91,-274,327,418
1538,1,11,-925,-238,-118,-39,-26,81,-289,327,418
1539,1,11,-969,-221,-104,-54,-11,91,-283,328,411
1541,1,11,-985,-216,-145,-53,-12,126,-300,330,409
1542,1,11,-1015,-215,-157,-42,-79,98,-303,324,402
1543,1,11,-943,-193,-173,-30,-69,76,-304,322,409
1544,1,11,-945,-196,-152,-35,-5,104,-297,319,411
1545,1,11,-940,-179,-155,-37,24,81,-297,333,408
1546,1,11,-918,-158,-171,-47,49,93,-304,324,414
1547,1,11,-954,-162,-170,-33,11,123,-309,313,406
1548,1,11,-969,-153,-181,-37,-41,140,-310,310,406
1550,1,11,-982,-130,-168,-23,-6,93,-313,315,414
1551,1,11,-964,-121,-145,-22,2,98,-313,310,408
1552,1,11,-969,-107,-173,-15,-45,118,-325,313,403
1553,1,11,-942,-95,-165,-7,-56,121,-316,303,400
1554,1,11,-1028,-84,-160,-17,-34,117,-330,315,403
1555,1,11,-1287,-110,-163,12,-44,-74,-328,318,403
1556,1,11,-912,-86,-128,-15,6,4,-324,312,405
1557,1,11,-940,-96,-150,-11,3,12,-319,312,409
1558,1,11,-890,-86,-163,4,51,-61,-316,310,405
1559,1,11,-965,-102,-177,14,39,-56,-328,319,417
1623,1,12,-966,-120,-205,-3,-30,0,-307,316,418
1624,1,12,-974,-121,-214,0,-51,7,-312,318,415
1625,1,12,-970,-118,-199,0,-53,12,-313,319,423
1626,1,12,-1001,-120,-223,-26,-60,26,-312,309,412
1627,1,12,-993,-120,-219,3,-172,35,-322,316,415
1628,1,12,-976,-101,-156,-2,-150,42,-313,318,406
1629,1,12,-1003,-102,-127,-9,-45,11,-324,316,406
1630,1,12,-969,-105,-166,-4,-19,-3,-322,304,411
1631,1,12,-1004,-123,-180,4,-70,9,-330,318,411
1632,1,12,-1061,-133,-142,-3,-70,-44,-316,324,412
1633,1,12,-973,-101,-179,1,-37,-77,-315,321,405
1634,1,12,-987,-122,-181,0,-44,-32,-310,315,415
1635,1,12,-1027,-123,-210,12,-56,-85,-318,313,408
1637,1,12,-1002,-166,-185,36,-30,-88,-318,315,405
1638,1,12,-991,-144,-162,37,-4,-140,-310,322,411
1639,1,12,-970,-161,-173,49,-25,-128,-309,318,400
1640,1,12,-966,-173,-110,49,-28,-117,-298,322,405
1641,1,12,-964,-166,-153,37,-18,-154,-303,319,421
1642,1,12,-912,-196,-132,32,11,-112,-292,324,420
1643,1,12,-953,-206,-94,22,-13,-119,-289,318,418
1644,1,12,-869,-201,-96,0,18,-120,-294,325,412
1645,1,12,-853,-205,-147,-21,-2,-81,-298,334,423
1646,1,12,-866,-216,-137,-30,-24,-47,-291,328,418
1647,1,12,-891,-241,-177,-16,-46,4,-291,331,418
1648,1,12,-985,-257,-213,-2,-11,-25,-289,325,412
1649,1,12,-972,-247,-199,11,10,-70,-283,330,420
1651,1,12,-944,-244,-171,47,-44,-102,-279,336,421
1652,1,12,-931,-249,-132,38,-16,-104,-277,328,430
1653,1,12,-881,-241,-136,11,-4,-79,-276,339,435
1654,1,12,-900,-265,-99,-3,-28,-39,-279,330,424
1655,1,12,-893,-258,-143,-8,-63,-2,-276,333,421
1656,1,12,-907,-269,-165,-16,-46,9,-270,334,424
1657,1,12,-932,-276,-154,-22,-39,19,-265,330,417
1658,1,12,-912,-264,-172,-19,-43,10,-270,330,424
1659,1,12,-879,-258,-169,-15,-80,46,-273,337,418
1660,1,12,-878,-250,-166,-12,-56,57,-277,331,415
1661,1,12,-869,-246,-150,-24,15,65,-270,330,417
1662,1,12,-919,-248,-167,-6,-57,109,-282,334,423
1663,1,12,-911,-233,-171,-6,-65,121,-285,319,430
1665,1,12,-962,-214,-150,-26,-17,116,-285,316,417
1666,1,12,-976,-202,-135,-32,-39,121,-286,330,417
1667,1,12,-966,-183,-120,-43,-21,120,-298,325,420
1668,1,12,-982,-185,-153,-56,-14,119,-295,328,408
1669,1,12,-979,-181,-166,-49,-11,115,-301,316,412
1670,1,12,-985,-172,-195,-38,-20,99,-298,319,414
1671,1,12,-980,-173,-196,-28,-14,89,-298,310,411
1672,1,12,-970,-163,-182,-27,5,75,-312,321,406
1673,1,12,-956,-148,-188,-22,20,68,-310,315,417
1674,1,12,-921,-142,-165,-21,34,77,-315,319,409
1675,1,12,-903,-111,-182,-28,41,76,-309,315,414
1676,1,12,-975,-122,-151,-32,-53,159,-319,315,414
1677,1,12,-1416,-168,-230,-6,21,-48,-319,325,417
1678,1,12,-851,-116,-195,-23,5,9,-316,324,412
1742,1,13,-965,-122,-202,0,-50,7,-313,319,420
1743,1,13,-959,-122,-194,-4,-41,6,-310,318,423
1744,1,13,-973,-110,-209,-2,-32,10,-315,312,418
1745,1,13,-997,-129,-216,-9,-65,24,-310,319,415
1746,1,13,-993,-121,-232,-9,-124,30,-312,313,423
1747,1,13,-946,-102,-168,-4,-102,21,-313,312,418
1748,1,13,-1024,-106,-183,-4,-99,39,-310,324,415
1749,1,13,-1033,-121,-152,0,-64,23,-321,315,393
1750,1,13,-982,-107,-183,2,-28,-29,-321,324,408
1751,1,13,-979,-125,-136,-4,23,-53,-322,312,415
1752,1,13,-967,-99,-207,-4,-6,-72,-319,312,412
1753,1,13,-1017,-133,-165,3,-70,-32,-309,312,403
1754,1,13,-1020,-136,-209,9,-59,-67,-321,315,402
1756,1,13,-1005,-152,-190,21,-2,-105,-310,324,412
1757,1,13,-969,-133,-192,29,-8,-122,-301,316,411
1758,1,13,-973,-174,-169,39,-44,-101,-313,327,417
1759,1,13,-992,-167,-175,25,-44,-149,-289,321,417
1760,1,13,-883,-179,-173,32,-7,-141,-300,322,418
1761,1,13,-946,-209,-156,40,-35,-77,-297,321,411
1762,1,13,-964,-202,-166,34,-33,-105,-292,321,415
1763,1,13,-882,-196,-163,28,-13,-98,-291,322,417
1764,1,13,-927,-221,-130,22,-9,-61,-283,321,411
1765,1,13,-897,-213,-171,33,-44,-57,-285,322,421
1766,1,13,-969,-243,-159,7,-19,-17,-295,325,424
1767,1,13,-924,-215,-160,29,-60,-58,-282,325,426
1768,1,13,-942,-248,-130,32,-47,-19,-279,339,420
1770,1,13,-967,-240,-119,9,-51,-60,-279,333,424
1771,1,13,-970,-235,-138,-11,-9,-57,-285,334,420
1772,1,13,-953,-251,-128,-8,-32,-59,-277,333,423
1773,1,13,-918,-249,-142,-16,-44,-45,-282,330,426
1774,1,13,-890,-244,-154,-19,-39,-37,-279,337,423
1775,1,13,-880,-272,-137,-19,-22,-16,-285,330,421
1776,1,13,-865,-259,-161,-18,-39,0,-274,325,421
1777,1,13,-877,-254,-158,-17,-32,37,-279,328,421
1778,1,13,-888,-247,-159,-18,-6,51,-280,328,421
1779,1,13,-931,-262,-156,-11,-28,77,-280,325,417
1780,1,13,-928,-235,-147,-12,-37,74,-285,333,417
1781,1,13,-945,-237,-147,-15,-55,93,-291,324,430
1782,1,13,-909,-223,-132,-22,-31,86,-285,322,409
1784,1,13,-942,-205,-150,-34,42,106,-301,330,414
1785,1,13,-977,-206,-164,-33,-16,119,-297,321,415
1786,1,13,-1013,-194,-159,-29,-87,130,-304,325,414
1787,1,13,-1002,-199,-175,-17,-94,109,-297,333,411
1788,1,13,-976,-172,-153,-28,-25,77,-303,318,405
1789,1,13,-966,-162,-153,-25,-14,76,-304,315,414
1790,1,13,-934,-152,-147,-27,-24,79,-303,324,411
1791,1,13,-940,-139,-148,-25,-42,99,-307,318,403
1792,1,13,-951,-144,-149,-35,-7,96,-307,318,411
1793,1,13,-958,-135,-171,-32,0,106,-313,318,411
1794,1,13,-991,-130,-187,-28,2,99,-321,313,415
1795,1,13,-1001,-124,-189,-14,-48,101,-316,315,414
1796,1,13,-1196,-146,-166,-14,-77,63,-313,319,399
1797,1,13,-1036,-112,-150,9,-14,-70,-330,313,396
1867,1,14,-972,-120,-201,-4,-38,2,-316,309,415
1868,1,14,-977,-120,-214,-6,-77,12,-313,313,420
1869,1,14,-964,-101,-143,-20,-72,19,-319,319,415
1870,1,14,-1009,-131,-224,-14,-76,27,-318,319,414
1871,1,14,-981,-107,-158,2,-127,28,-315,315,411
1872,1,14,-1019,-108,-184,-16,-50,35,-321,313,405
1873,1,14,-1043,-119,-194,3,-109,35,-325,319,406
1874,1,14,-1001,-112,-168,20,-82,-3,-322,319,405
1875,1,14,-1036,-117,-170,23,-8,-28,-333,321,406
1876,1,14,-1073,-129,-139,18,-39,-67,-324,313,412
1877,1,14,-1018,-120,-130,15,-72,-128,-318,318,412
1878,1,14,-963,-110,-153,-6,-56,-147,-318,322,402
1879,1,14,-990,-150,-152,-15,-42,-91,-316,312,406
1880,1,14,-1004,-164,-177,4,-105,-110,-318,318,405
1881,1,14,-953,-169,-177,18,-114,-121,-307,319,400
1882,1,14,-923,-162,-168,18,-58,-151,-300,322,396
1883,1,14,-928,-199,-144,28,-44,-112,-297,318,405
1885,1,14,-923,-211,-136,46,-16,-106,-312,327,400
1886,1,14,-961,-203,-162,55,14,-151,-294,328,409
1887,1,14,-998,-236,-112,65,-60,-86,-286,331,405
1888,1,14,-951,-221,-138,56,-73,-103,-286,336,405
1889,1,14,-926,-240,-73,25,-34,-70,-283,337,411
1890,1,14,-993,-252,-81,19,-86,-76,-283,336,405
1891,1,14,-950,-220,-140,17,-37,-69,-280,336,421
1892,1,14,-960,-258,-99,-7,-17,-79,-282,334,411
1893,1,14,-934,-264,-121,-14,-13,-70,-277,340,405
1894,1,14,-868,-270,-113,-2,-44,-49,-270,337,411
1895,1,14,-823,-252,-126,-12,0,-14,-273,340,406
1896,1,14,-851,-261,-106,-11,-37,23,-279,334,403
1897,1,14,-825,-262,-121,-10,-18,51,-279,331,406
1898,1,14,-891,-268,-104,-19,-9,97,-270,327,400
1899,1,14,-914,-240,-108,-17,-36,97,-280,328,405
1900,1,14,-935,-234,-106,-26,2,119,-288,327,408
1901,1,14,-946,-235,-115,-30,0,108,-295,328,405
1902,1,14,-894,-201,-127,-40,30,126,-285,328,414
1904,1,14,-977,-207,-142,-30,2,102,-298,318,403
1905,1,14,-983,-189,-144,-39,40,99,-304,327,409
1906,1,14,-996,-175,-155,-38,21,96,-303,321,409
1907,1,14,-988,-167,-157,-28,-39,121,-298,319,412
1908,1,14,-980,-170,-162,-23,-72,120,-313,321,411
1909,1,14,-964,-159,-167,-18,-25,91,-306,315,400
1910,1,14,-953,-155,-192,-11,-19,91,-306,322,405
1911,1,14,-965,-147,-174,6,-26,93,-318,322,412
1912,1,14,-959,-131,-146,1,11,75,-318,324,411
1913,1,14,-935,-114,-137,-7,53,72,-316,321,408
1914,1,14,-944,-108,-134,-14,56,72,-316,316,414
1915,1,14,-1127,-130,-110,-14,-65,98,-324,310,408
1916,1,14,-1277,-126,-193,3,53,-119,-316,319,417
1917,1,14,-798,-102,-142,-20,42,-9,-313,312,415
1918,1,14,-967,-104,-224,-17,44,28,-324,307,415
1919,1,14,-970,-123,-180,12,-31,-21,-316,310,415
1920,1,14,-990,-115,-185,0,3,-17,-319,315,414
1921,1,14,-1006,-122,-216,-15,23,3,-327,312,420
1983,1,15,-985,-98,-164,-24,-22,31,-324,310,418
1984,1,15,-1001,-106,-205,-30,11,45,-318,327,414
1985,1,15,-1013,-90,-212,-23,6,32,-322,312,417
1986,1,15,-1014,-74,-267,6,-88,41,-315,322,427
1987,1,15,-1067,-131,-175,35,-266,77,-322,306,417
1988,1,15,-1066,-121,-177,24,-169,-65,-337,313,421
1989,1,15,-976,-108,-170,-4,-39,-156,-327,315,411
1990,1,15,-987,-119,-146,-12,28,-130,-322,325,411
1991,1,15,-1001,-100,-172,-6,-50,-128,-315,313,418
1992,1,15,-969,-123,-185,10,-84,-79,-315,319,409
1994,1,15,-890,-156,-187,12,-29,-126,-310,319,414
1995,1,15,-969,-181,-210,25,-82,-106,-315,321,411
1996,1,15,-874,-175,-152,32,-38,-119,-303,316,406
1997,1,15,-871,-178,-167,20,-4,-86,-304,322,412
1998,1,15,-930,-183,-188,25,0,-68,-301,330,412
1999,1,15,-924,-213,-120,36,-20,-39,-300,324,417
2000,1,15,-899,-187,-145,21,-30,-48,-295,331,412
2001,1,15,-938,-197,-127,8,1,-29,-303,331,417
2002,1,15,-996,-198,-138,1,-32,-9,-297,322,423
2003,1,15,-972,-187,-160,-5,-5,-37,-292,325,415
2004,1,15,-963,-210,-143,-8,16,-35,-292,324,417
2006,1,15,-981,-244,-175,12,-40,-53,-294,327,421
2007,1,15,-983,-221,-184,-4,16,-72,-282,327,412
2008,1,15,-852,-198,-134,8,-50,-70,-289,327,415
2009,1,15,-922,-223,-159,23,-77,-71,-277,325,418
2010,1,15,-902,-232,-149,0,-11,-15,-289,334,417
2011,1,15,-970,-256,-157,5,-26,-23,-283,324,415
2012,1,15,-874,-239,-154,11,-21,-49,-292,330,426
2013,1,15,-927,-244,-163,0,-16,0,-286,327,420
2014,1,15,-939,-238,-142,0,-53,0,-279,333,420
2015,1,15,-931,-240,-129,-7,-30,-7,-282,331,411
2017,1,15,-893,-227,-137,-8,-75,60,-288,333,415
2018,1,15,-871,-218,-130,-32,-32,40,-286,328,418
2019,1,15,-870,-209,-161,-33,-6,103,-277,336,415
2020,1,15,-960,-224,-147,-26,-26,119,-289,328,417
2021,1,15,-949,-215,-168,-27,-22,102,-294,331,420
2022,1,15,-952,-200,-178,-31,0,116,-292,319,418
2023,1,15,-991,-195,-167,-18,-30,121,-295,319,411
2024,1,15,-950,-177,-175,-16,-42,94,-298,321,414
2025,1,15,-930,-174,-165,-19,16,105,-301,316,411
2026,1,15,-927,-155,-161,-28,55,103,-301,316,418
2027,1,15,-946,-141,-159,-29,43,119,-307,319,414
2029,1,15,-1029,-140,-193,-12,-95,124,-319,322,411
2030,1,15,-1037,-126,-174,-26,-34,78,-328,312,411
2031,1,15,-1001,-122,-174,-14,-41,53,-324,322,415
2032,1,15,-950,-105,-163,-28,2,37,-322,319,417
2033,1,15,-979,-111,-158,-34,-7,57,-330,319,414
2034,1,15,-1189,-142,-219,-25,54,-31,-318,304,409
2035,1,15,-957,-106,-208,-18,43,-51,-322,315,408
2036,1,15,-941,-123,-205,-7,-34,8,-316,310,415
2037,1,15,-809,-79,-177,0,-36,-24,-312,316,409
2038,1,15,-1108,-132,-185,0,-62,35,-322,319,411
2039,1,15,-973,-114,-183,8,-25,-29,-316,319,414
2097,1,16,-962,-119,-214,-4,-27,0,-316,319,429
2098,1,16,-963,-120,-214,-4,-26,0,-318,309,430
2099,1,16,-965,-119,-221,-4,-30,1,-309,322,427
2100,1,16,-959,-120,-202,-2,-45,6,-313,307,424
2101,1,16,-964,-119,-212,-7,-34,7,-316,309,429
2102,1,16,-977,-117,-234,-13,-55,18,-315,318,420
2103,1,16,-993,-122,-220,-16,-86,30,-319,315,420
2104,1,16,-961,-115,-226,-1,-130,37,-316,310,429
2105,1,16,-964,-102,-129,-11,-56,30,-309,318,414
2106,1,16,-1074,-108,-209,-25,-37,60,-324,319,411
2108,1,16,-1087,-107,-124,0,-171,0,-327,316,417
2109,1,16,-1081,-106,-189,18,-159,-71,-319,313,403
2110,1,16,-1006,-110,-161,8,-105,-98,-319,313,411
2111,1,16,-1067,-124,-162,-21,-8,-161,-322,319,409
2112,1,16,-974,-143,-179,-4,6,-191,-306,315,405
2113,1,16,-981,-149,-204,2,-24,-196,-310,316,406
2114,1,16,-918,-177,-177,28,-72,-146,-303,321,408
2115,1,16,-891,-177,-169,31,-65,-149,-298,330,409
2116,1,16,-880,-182,-134,11,2,-142,-294,319,411
2117,1,16,-867,-181,-148,12,-41,-94,-301,321,411
2118,1,16,-940,-220,-135,16,-42,-67,-292,322,405
2120,1,16,-964,-225,-196,23,-33,-46,-291,321,415
2121,1,16,-1037,-230,-155,2,23,-102,-292,325,417
2122,1,16,-910,-232,-141,0,4,-81,-283,336,414
2123,1,16,-894,-247,-156,38,-90,-56,-282,333,414
2124,1,16,-930,-224,-156,2,0,-100,-282,328,415
2125,1,16,-869,-244,-152,12,-12,-52,-285,333,408
2126,1,16,-889,-262,-141,3,-4,-14,-277,325,415
2127,1,16,-920,-248,-124,4,-39,-6,-283,328,412
2128,1,16,-888,-256,-143,2,-53,39,-277,327,415
2129,1,16,-927,-271,-138,0,-6,37,-276,327,420
2131,1,16,-913,-241,-130,-5,-38,35,-277,330,409
2132,1,16,-889,-235,-138,-10,-23,71,-276,327,415
2133,1,16,-896,-233,-133,-31,16,74,-285,325,412
2134,1,16,-876,-211,-125,-30,-12,93,-283,322,415
2135,1,16,-914,-223,-164,-20,-85,155,-285,325,420
2136,1,16,-998,-220,-169,-17,-71,147,-295,328,408
2137,1,16,-1004,-199,-153,-29,42,97,-300,324,409
2138,1,16,-1026,-193,-158,-25,10,107,-303,328,408
2139,1,16,-1010,-178,-155,-9,-79,113,-300,325,405
2140,1,16,-990,-180,-166,-10,-47,84,-304,333,405
2141,1,16,-968,-161,-148,-18,1,49,-312,318,412
2143,1,16,-925,-150,-152,-14,-14,67,-313,321,415
2144,1,16,-931,-140,-131,-16,-12,84,-306,324,409
2145,1,16,-911,-120,-139,-27,0,85,-315,316,409
2146,1,16,-914,-120,-166,-30,6,118,-315,315,409
2147,1,16,-978,-129,-156,-37,26,126,-318,309,397
2148,1,16,-976,-104,-172,-41,4,109,-321,316,411
2149,1,16,-1336,-159,-220,-25,-37,42,-319,316,415
2150,1,16,-979,-93,-174,0,6,-86,-315,327,403
2151,1,16,-856,-96,-144,-37,0,28,-321,312,412
2152,1,16,-964,-103,-216,-17,-25,4,-321,318,414
2153,1,16,-1008,-119,-183,7,-70,-14,-316,316,414
2218,1,17,-1025,-129,-225,-17,-110,30,-316,310,415
2219,1,17,-949,-107,-184,-10,-107,29,-318,315,415
2220,1,17,-1005,-114,-158,-19,-44,30,-319,312,406
2221,1,17,-1023,-114,-165,-19,-41,35,-318,312,411
2222,1,17,-947,-99,-183,-8,-44,25,-325,312,415
2223,1,17,-974,-111,-161,-5,-42,-17,-321,316,412
2224,1,17,-969,-107,-180,-18,0,-52,-321,316,408
2225,1,17,-1000,-114,-177,-15,0,-60,-321,316,414
2226,1,17,-1052,-138,-177,-1,-25,-81,-318,318,408
2227,1,17,-1038,-142,-202,0,-7,-142,-312,318,409
2228,1,17,-956,-126,-214,-1,59,-168,-301,327,420
2229,1,17,-997,-163,-152,0,0,-143,-300,312,417
2230,1,17,-954,-151,-179,3,-19,-170,-298,321,412
2231,1,17,-947,-184,-174,-4,-1,-100,-291,321,417
2232,1,17,-976,-188,-177,11,-28,-109,-304,319,421
2233,1,17,-949,-194,-167,18,-55,-118,-295,316,418
2234,1,17,-961,-211,-181,0,-24,-102,-291,325,423
2235,1,17,-944,-220,-202,23,-46,-95,-285,319,421
2236,1,17,-917,-240,-218,40,-87,-81,-285,324,424
2237,1,17,-957,-238,-192,34,-70,-94,-288,327,424
2238,1,17,-877,-218,-162,16,7,-119,-280,331,423
2239,1,17,-886,-251,-166,23,4,-53,-282,333,424
2240,1,17,-939,-267,-166,34,-49,-61,-280,334,429
2241,1,17,-841,-228,-193,43,-64,-58,-274,331,424
2242,1,17,-855,-259,-153,14,-51,-23,-279,324,424
2243,1,17,-902,-274,-154,26,-26,-18,-277,328,423
2244,1,17,-910,-258,-169,24,-62,-7,-277,328,423
2245,1,17,-894,-244,-145,7,-41,-4,-274,334,426
2246,1,17,-915,-260,-126,-7,-32,8,-282,330,423
2247,1,17,-892,-258,-137,-15,-25,22,-279,336,424
2248,1,17,-914,-257,-164,-18,-52,46,-283,324,427
2249,1,17,-905,-248,-154,-23,-35,35,-273,334,432
2250,1,17,-865,-249,-175,-20,-38,73,-280,331,426
2251,1,17,-915,-247,-170,-6,-64,116,-280,328,424
2252,1,17,-890,-237,-185,-16,-42,105,-285,322,414
2253,1,17,-898,-213,-175,-21,-8,126,-286,322,412
2254,1,17,-955,-217,-177,-14,-23,145,-288,322,421
2255,1,17,-982,-201,-166,-15,-14,133,-294,316,408
2256,1,17,-998,-198,-164,-15,-8,130,-306,322,417
2257,1,17,-980,-179,-160,-13,-33,127,-304,316,418
2258,1,17,-1015,-166,-158,-23,-21,105,-301,307,414
2259,1,17,-990,-163,-169,-23,-23,86,-310,322,415
2260,1,17,-994,-157,-163,-25,-18,83,-301,321,420
2261,1,17,-988,-149,-180,-23,-46,71,-307,316,405
2262,1,17,-971,-154,-187,-13,-33,65,-312,325,406
2263,1,17,-957,-142,-197,-16,-13,56,-315,313,408
2264,1,17,-951,-141,-186,-1,-25,63,-318,313,406
2265,1,17,-942,-129,-182,-10,7,52,-318,316,414
2266,1,17,-1050,-121,-131,2,-124,127,-325,321,408
2267,1,17,-1239,-140,-156,-2,-74,-32,-316,318,403
2268,1,17,-841,-94,-140,-36,-1,0,-315,319,403
2269,1,17,-959,-111,-187,-27,-37,65,-315,318,403
2270,1,17,-1011,-118,-166,18,-74,0,-321,322,406
2331,1,18,-966,-118,-208,-4,-28,0,-321,318,429
2332,1,18,-968,-119,-212,-2,-37,2,-318,315,424
2333,1,18,-966,-100,-181,-20,-22,5,-313,325,421
2334,1,18,-1002,-129,-245,-28,-106,26,-319,322,424
2335,1,18,-965,-108,-200,4,-159,26,-312,306,424
2336,1,18,-967,-102,-152,-12,-78,28,-316,318,409
2337,1,18,-992,-111,-190,-17,-33,33,-318,313,417
2338,1,18,-987,-107,-177,-8,-48,23,-310,312,418
2339,1,18,-1003,-115,-180,-4,-30,-9,-313,322,414
2340,1,18,-959,-105,-190,0,-40,4,-324,307,412
2341,1,18,-1038,-132,-195,21,-91,-24,-327,309,420
2342,1,18,-1009,-119,-211,30,-56,-88,-318,321,415
2343,1,18,-1034,-136,-191,36,-36,-67,-322,313,415
2344,1,18,-1035,-143,-176,48,-64,-119,-318,313,409
2345,1,18,-978,-136,-167,49,-42,-105,-307,313,411
2346,1,18,-1024,-165,-126,51,-56,-132,-318,316,412
2347,1,18,-933,-123,-163,38,-41,-179,-304,324,411
2348,1,18,-992,-177,-87,21,-23,-135,-294,322,418
2349,1,18,-965,-187,-110,7,-7,-179,-298,328,420
2350,1,18,-1017,-198,-144,-13,65,-115,-291,321,418
2351,1,18,-1021,-223,-156,-5,-21,-142,-300,331,420
2352,1,18,-894,-210,-174,0,-33,-177,-274,333,423
2353,1,18,-896,-255,-162,-9,19,-91,-289,333,426
2354,1,18,-932,-274,-195,14,-38,-103,-280,331,432
2355,1,18,-882,-234,-201,10,-31,-119,-271,328,421
2356,1,18,-868,-246,-139,18,-51,-72,-265,327,430
2357,1,18,-820,-255,-135,12,-29,-35,-267,333,426
2358,1,18,-827,-262,-135,7,-30,2,-277,330,432
2359,1,18,-853,-249,-133,-4,-4,20,-273,331,424
2360,1,18,-896,-258,-120,-6,-29,60,-268,331,421
2361,1,18,-952,-266,-125,-19,-5,63,-271,337,418
2362,1,18,-945,-244,-132,-29,0,61,-271,339,424
2363,1,18,-998,-257,-151,-25,-30,67,-273,324,420
2364,1,18,-961,-239,-166,-28,-30,48,-282,324,426
2365,1,18,-971,-241,-165,-37,-4,23,-285,330,417
2366,1,18,-910,-238,-170,-27,-11,41,-280,336,426
2367,1,18,-887,-227,-169,-24,-23,60,-285,322,414
2368,1,18,-858,-207,-174,-29,-11,81,-295,321,421
2369,1,18,-898,-212,-169,-26,-11,115,-300,328,423
2370,1,18,-931,-215,-190,-18,-9,128,-292,319,421
2371,1,18,-957,-203,-186,-16,-4,140,-301,318,421
2372,1,18,-1001,-195,-192,-6,-30,132,-309,318,423
2373,1,18,-972,-165,-170,-14,-16,119,-303,322,421
2374,1,18,-1005,-164,-170,-4,-48,128,-303,322,420
2375,1,18,-995,-156,-151,-8,-40,93,-310,318,418
2376,1,18,-979,-146,-157,-16,-23,84,-316,316,421
2377,1,18,-986,-142,-160,-22,-14,81,-300,316,426
2378,1,18,-982,-129,-174,-27,-7,72,-306,315,417
2379,1,18,-982,-124,-172,-27,-21,81,-316,322,415
2380,1,18,-971,-121,-170,-29,-28,60,-322,315,415
2381,1,18,-938,-111,-178,-31,-39,77,-315,312,418
2382,1,18,-980,-120,-175,-40,-32,73,-315,309,418
2383,1,18,-1202,-127,-217,-30,105,-80,-322,312,411
2453,1,19,-964,-118,-213,-4,-28,2,-318,312,432
2454,1,19,-966,-110,-213,-4,-25,4,-321,318,426
2455,1,19,-982,-112,-231,-22,-55,17,-319,319,420
2456,1,19,-983,-122,-223,-21,-115,36,-316,316,421
2457,1,19,-965,-101,-192,-16,-96,32,-321,322,423
2458,1,19,-1005,-108,-175,-29,-37,40,-322,312,424
2459,1,19,-1023,-104,-198,-23,-34,39,-324,313,412
2460,1,19,-990,-105,-199,1,-42,-13,-325,315,417
2461,1,19,-1018,-115,-157,4,-105,-36,-322,315,414
2462,1,19,-999,-92,-177,12,-149,-54,-324,310,417
2463,1,19,-1019,-116,-162,-14,-59,-93,-319,309,408
2464,1,19,-974,-109,-172,-32,3,-107,-321,315,415
2465,1,19,-998,-133,-197,-16,-42,-100,-315,318,411
2466,1,19,-979,-151,-197,-7,-35,-120,-309,316,403
2467,1,19,-923,-146,-220,6,-23,-98,-303,316,421
2468,1,19,-983,-182,-235,29,-56,-97,-301,315,418
2469,1,19,-918,-176,-187,30,-7,-111,-309,321,424
2470,1,19,-951,-177,-180,28,-7,-94,-298,316,414
2471,1,19,-965,-189,-158,37,-26,-106,-295,321,411
2472,1,19,-910,-178,-162,23,7,-98,-289,318,424
2473,1,19,-959,-205,-160,31,-19,-54,-297,324,426
2474,1,19,-952,-197,-169,24,-20,-85,-301,324,420
2475,1,19,-946,-201,-198,20,-25,-51,-292,331,423
2476,1,19,-979,-238,-138,16,-28,-67,-286,333,418
2477,1,19,-901,-202,-172,6,-19,-74,-288,325,427
2478,1,19,-941,-242,-169,6,-15,-34,-286,331,423
2479,1,19,-940,-223,-177,5,-46,-37,-283,325,429
2480,1,19,-902,-231,-141,2,-8,-30,-279,336,426
2481,1,19,-893,-224,-157,0,5,0,-277,328,415
2482,1,19,-932,-241,-135,4,-24,8,-285,333,415
2483,1,19,-947,-224,-146,-11,-14,9,-282,330,423
2484,1,19,-962,-240,-161,0,-21,19,-283,324,426
2485,1,19,-996,-229,-160,-19,0,-21,-286,324,423
2486,1,19,-918,-241,-157,-9,-24,0,-285,333,423
2487,1,19,-868,-231,-158,-15,-56,17,-283,325,430
2488,1,19,-824,-211,-170,-14,-57,62,-282,333,421
2489,1,19,-900,-216,-148,-20,-44,84,-279,333,418
2490,1,19,-906,-210,-157,-37,-3,81,-282,327,420
2491,1,19,-964,-212,-159,-38,26,109,-286,331,418
2492,1,19,-995,-206,-156,-36,-10,97,-301,328,427
2493,1,19,-956,-174,-163,-42,-39,102,-297,321,421
2494,1,19,-979,-178,-205,-50,-4,109,-309,321,420
2495,1,19,-992,-182,-213,-33,-27,100,-310,319,414
2496,1,19,-957,-166,-215,-26,0,73,-304,316,421
2497,1,19,-958,-163,-226,-16,14,86,-313,321,418
2498,1,19,-982,-165,-211,0,-15,87,-303,315,420
2499,1,19,-927,-136,-191,-6,29,66,-316,316,418
2500,1,19,-923,-118,-187,-6,7,84,-309,321,417
2501,1,19,-911,-118,-161,0,-44,116,-316,313,420
2502,1,19,-909,-108,-154,-16,-21,111,-313,315,415
2503,1,19,-1416,-177,-213,-35,-34,77,-312,313,415
2504,1,19,-943,-104,-185,-12,76,-108,-315,321,427
2505,1,19,-812,-106,-228,-37,67,32,-312,313,426
2554,1,20,-960,-119,-222,2,-30,0,-309,318,429
2555,1,20,-961,-120,-223,0,-30,0,-315,319,427
2556,1,20,-963,-120,-222,0,-35,1,-310,318,436
2557,1,20,-960,-120,-220,0,-44,2,-321,319,429
2558,1,20,-962,-119,-215,0,-37,0,-319,319,424
2559,1,20,-964,-119,-219,-3,-40,2,-306,318,426
2560,1,20,-991,-114,-250,9,-112,28,-321,319,424
2562,1,20,-953,-104,-203,4,-128,26,-313,313,420
2563,1,20,-992,-105,-144,-24,51,-4,-327,313,421
2564,1,20,-1001,-113,-272,-26,8,25,-321,318,426
2565,1,20,-1063,-137,-232,21,-126,42,-319,312,412
2566,1,20,-1022,-128,-221,43,-145,-2,-325,313,408
2567,1,20,-997,-112,-169,49,-95,-57,-330,315,415
2569,1,20,-970,-120,-179,28,11,-108,-322,319,420
2570,1,20,-1004,-145,-172,42,-46,-105,-315,318,415
2571,1,20,-995,-153,-189,48,-81,-114,-316,321,421
2572,1,20,-973,-156,-162,42,-62,-125,-300,319,414
2573,1,20,-938,-146,-150,39,-69,-112,-303,322,420
2574,1,20,-934,-188,-149,38,-78,-112,-303,325,421
2576,1,20,-899,-188,-131,9,-19,-100,-297,336,418
2577,1,20,-954,-225,-165,12,1,-86,-303,322,421
2578,1,20,-927,-198,-189,11,-21,-102,-298,331,424
2579,1,20,-950,-231,-126,10,-7,-51,-294,331,427
2580,1,20,-986,-213,-188,15,-42,-73,-289,327,429
2581,1,20,-952,-226,-155,16,-51,-111,-283,328,421
2582,1,20,-973,-239,-144,14,-53,-70,-279,331,418
2584,1,20,-890,-228,-155,-16,20,-86,-276,334,421
2585,1,20,-876,-255,-119,-13,-16,-46,-279,328,420
2586,1,20,-929,-257,-171,-20,-13,-33,-273,328,424
2587,1,20,-893,-286,-155,-9,1,-21,-271,324,420
2588,1,20,-836,-244,-146,-15,3,-11,-280,325,427
2589,1,20,-825,-228,-183,-32,10,30,-271,330,435
2590,1,20,-861,-256,-149,-18,-39,88,-277,330,426
2592,1,20,-926,-232,-163,-35,-6,112,-283,331,426
2593,1,20,-993,-227,-167,-34,0,125,-285,322,427
2594,1,20,-1031,-218,-175,-31,-60,126,-295,330,418
2595,1,20,-1001,-209,-158,-28,-26,115,-300,327,420
2596,1,20,-978,-200,-170,-45,-48,118,-298,327,421
2597,1,20,-991,-196,-182,-42,-64,94,-306,328,418
2599,1,20,-944,-181,-205,-36,-4,103,-310,325,417
2600,1,20,-962,-180,-209,-18,-40,101,-310,318,418
2601,1,20,-927,-155,-227,-19,25,91,-315,313,418
2602,1,20,-970,-156,-194,-11,37,101,-301,316,427
2603,1,20,-967,-136,-183,-4,-15,108,-316,321,424
2604,1,20,-1005,-121,-162,-15,-23,103,-319,322,420
2606,1,20,-978,-115,-161,-21,-30,62,-322,325,415
2607,1,20,-948,-98,-147,-33,19,43,-319,318,421
2608,1,20,-1103,-140,-229,-42,25,24,-322,318,420
2609,1,20,-1078,-111,-243,-32,135,-88,-313,313,414
2610,1,20,-964,-123,-229,-21,12,9,-315,319,423
2611,1,20,-908,-102,-222,-7,-39,5,-316,310,420
2612,1,20,-977,-113,-219,1,-97,35,-319,328,412
2613,1,20,-1050,-119,-205,13,-102,-5,-321,312,420
3566,2,21,-952,-113,-268,-6,-23,0,-349,342,447
3568,2,21,-963,-116,-283,2,-75,7,-349,334,441
3570,2,21,-977,-120,-263,30,-228,36,-346,342,433
3572,2,21,-982,-102,-177,36,-410,99,-349,340,414
3574,2,21,-1004,-51,-140,15,-268,107,-363,337,381
3576,2,21,-1020,-33,-89,25,-275,184,-372,333,364
3578,2,21,-1011,-13,-34,-20,-39,176,-390,331,351
3580,2,21,-877,54,-45,-18,-63,244,-414,316,354
3582,2,21,-942,148,-67,-37,-222,296,-438,306,351
3584,2,21,-1198,109,-5,-79,-32,390,-472,291,337
3586,2,21,-986,140,-48,-105,-32,462,-525,256,334
3588,2,21,-947,186,-44,-68,-66,278,-574,229,322
3590,2,21,-1011,347,-83,-140,-87,262,-604,193,301
3591,2,21,-961,372,-35,-115,-199,280,-627,166,283
3593,2,21,-920,414,13,-65,-197,349,-654,111,252
3595,2,21,-851,425,92,-61,-108,338,-673,-13,198
3597,2,21,-955,434,80,-67,-53,254,-657,-168,118
3599,2,21,-841,456,80,-33,-80,245,-546,-285,52
3601,2,21,-857,442,113,-18,-60,148,-409,-346,6
3603,2,21,-847,519,76,-23,17,33,-339,-384,-7
3605,2,21,-824,568,64,9,11,41,-283,-414,-21
3607,2,21,-819,568,104,7,-16,56,-216,-433,-21
3609,2,21,-811,555,65,-14,3,60,-127,-430,-7
3611,2,21,-838,524,71,4,-51,18,-79,-406,-15
3613,2,21,-797,555,78,9,-81,-16,-111,-426,-12
3615,2,21,-793,596,98,3,-49,-16,-138,-451,-31
3617,2,21,-791,564,93,-4,-16,-16,-172,-474,-21
3619,2,21,-806,570,99,2,0,-17,-190,-490,-25
3621,2,21,-814,561,61,2,-16,-17,-214,-516,-27
3623,2,21,-843,534,71,9,-14,-30,-241,-531,-18
3625,2,21,-826,534,75,14,-23,-70,-319,-529,-9
3627,2,21,-827,516,68,9,-9,-114,-424,-507,27
3629,2,21,-842,510,89,7,-6,-122,-546,-450,82
3631,2,21,-872,483,49,-1,-15,-198,-627,-330,133
3633,2,21,-854,467,42,14,-21,-235,-687,-189,189
3635,2,21,-884,428,39,46,-11,-230,-699,-57,222
3637,2,21,-897,407,58,37,2,-223,-676,37,250
3639,2,21,-925,360,34,25,0,-237,-639,108,274
3641,2,21,-907,308,26,42,-25,-244,-616,166,292
3642,2,21,-935,298,56,37,-14,-247,-594,190,292
3644,2,21,-971,323,70,23,-67,-188,-561,220,301
3646,2,21,-959,245,61,22,-16,-163,-544,235,300
3648,2,21,-994,189,3,30,-41,-167,-529,243,295
3650,2,21,-974,178,54,52,-70,-200,-507,259,304
3652,2,21,-988,160,83,43,-44,-208,-489,271,310
3654,2,21,-954,95,105,42,-31,-227,-465,277,304
3656,2,21,-1007,102,58,18,41,-284,-445,300,312
3658,2,21,-1063,23,32,15,-13,-225,-421,303,321
3660,2,21,-1064,1,78,-10,68,-190,-406,322,328
3662,2,21,-977,-19,14,-14,-26,-107,-399,328,324
3664,2,21,-969,-51,52,0,9,-124,-385,325,322
3666,2,21,-969,-67,59,-14,150,-84,-373,325,342
3667,2,21,-995,-73,16,-32,205,-63,-366,334,340
3718,2,22,-979,-101,-124,-4,-23,-1,-354,343,390
3719,2,22,-980,-100,-125,-4,-26,0,-357,343,387
3720,2,22,-979,-100,-122,-4,-23,0,-355,336,388
3721,2,22,-981,-101,-127,-4,-27,0,-355,346,390
3722,2,22,-979,-101,-124,-4,-30,0,-366,337,385
3724,2,22,-984,-98,-129,-2,-58,10,-351,339,393
3725,2,22,-1027,-97,-158,-2,-81,35,-361,342,387
3726,2,22,-991,-101,-123,3,-172,111,-357,339,375
3727,2,22,-960,-70,-62,-4,-106,131,-364,343,378
3728,2,22,-989,-50,-79,-24,-25,150,-372,330,372
3730,2,22,-998,-24,-83,-2,-61,186,-391,327,382
3731,2,22,-994,7,-112,-30,7,200,-388,333,373
3732,2,22,-1011,16,-107,-33,-28,235,-393,316,388
3733,2,22,-1000,51,-108,-25,-97,268,-424,313,376
3734,2,22,-988,68,-83,-38,-66,284,-430,303,369
3736,2,22,-972,90,-84,-63,-72,242,-451,294,367
3737,2,22,-973,114,-90,-60,-58,209,-460,288,357
3738,2,22,-1001,188,-109,-71,-60,207,-478,289,354
3739,2,22,-1013,184,-71,-48,-107,244,-486,282,358
3740,2,22,-961,224,-49,-33,-113,277,-504,279,352
3742,2,22,-923,239,-25,-62,56,298,-540,256,346
3743,2,22,-935,261,-69,-109,109,297,-573,241,339
3744,2,22,-966,276,-93,-111,73,296,-588,217,343
3745,2,22,-955,302,-106,-96,-14,289,-607,204,327
3746,2,22,-963,311,-103,-75,-88,282,-646,171,318
3748,2,22,-918,341,-49,-43,-112,235,-697,111,289
3749,2,22,-897,360,-33,-50,-97,221,-711,75,258
3750,2,22,-895,384,-35,-47,-98,211,-727,27,241
3751,2,22,-909,421,-31,-56,-80,198,-748,-15,220
3752,2,22,-901,429,-16,-53,-77,198,-753,-84,186
3754,2,22,-890,460,0,-42,-98,190,-738,-223,129
3755,2,22,-861,463,-10,-40,-120,193,-708,-297,88
3756,2,22,-874,483,11,-42,-104,170,-661,-369,58
3757,2,22,-830,491,-6,-32,-116,167,-606,-435,30
3758,2,22,-860,498,21,-39,-94,159,-538,-499,0
3760,2,22,-789,553,26,-31,-98,175,-358,-573,-39
3761,2,22,-844,559,48,-30,-68,175,-241,-577,-58
3762,2,22,-821,546,38,-14,-95,173,-124,-556,-55
3763,2,22,-798,552,52,-13,-81,156,-37,-496,-57
3764,2,22,-825,553,50,-14,-60,137,55,-421,-40
3766,2,22,-833,529,76,7,-57,100,111,-268,-13
3767,2,22,-818,520,54,10,-47,36,106,-231,-3
3768,2,22,-818,531,81,-8,-17,-7,115,-235,1
3769,2,22,-760,604,75,-5,-39,-24,138,-264,-15
3770,2,22,-788,609,48,5,3,-28,153,-295,-18
3772,2,22,-774,608,58,14,0,-18,169,-364,-37
3773,2,22,-788,596,53,7,8,-16,180,-382,-36
3774,2,22,-781,596,47,1,0,-12,187,-405,-39
3775,2,22,-797,587,40,2,-4,-12,189,-436,-51
3776,2,22,-795,586,18,9,-38,-16,196,-471,-48
3777,2,22,-791,586,59,5,-51,-16,172,-498,-61
3779,2,22,-817,570,37,-10,-28,-29,129,-559,-81
3780,2,22,-784,584,56,-21,-20,-19,84,-589,-82
3781,2,22,-791,592,60,-18,-4,-31,46,-633,-82
3782,2,22,-794,569,64,-1,4,-43,-1,-673,-81
3783,2,22,-790,583,55,7,-3,-45,-57,-699,-79
3785,2,22,-818,546,42,22,14,-72,-172,-751,-54
3786,2,22,-821,542,29,28,0,-96,-253,-762,-39
3787,2,22,-820,562,20,18,-3,-122,-339,-748,3
3788,2,22,-830,543,24,20,-2,-121,-438,-717,19
3789,2,22,-831,531,15,21,-23,-125,-517,-675,54
3791,2,22,-861,502,36,4,-35,-177,-652,-519,121
3792,2,22,-868,484,31,-17,14,-208,-699,-441,153
3793,2,22,-867,466,3,-14,-7,-228,-724,-343,186
3794,2,22,-857,455,22,-14,-35,-222,-742,-250,211
3795,2,22,-891,444,10,2,-8,-251,-741,-160,228
3797,2,22,-872,424,13,36,-57,-240,-717,-4,267
3798,2,22,-931,386,20,34,3,-265,-702,36,282
3799,2,22,-885,333,-8,36,-17,-298,-678,87,283
3800,2,22,-943,355,20,42,-4,-326,-655,130,297
3801,2,22,-959,292,27,39,7,-328,-634,174,301
3803,2,22,-929,322,5,53,-39,-313,-574,214,310
3804,2,22,-937,308,16,63,-57,-277,-555,231,327
3805,2,22,-1001,252,8,49,-17,-259,-544,252,316
3806,2,22,-938,238,20,49,-18,-245,-526,258,321
3807,2,22,-961,215,11,44,-15,-214,-511,261,330
3809,2,22,-946,169,-5,33,-46,-183,-490,270,328
3810,2,22,-991,128,8,34,-28,-184,-477,294,328
3811,2,22,-960,119,-2,25,-32,-201,-466,288,334
3812,2,22,-972,79,-5,33,-39,-217,-457,295,331
3813,2,22,-983,117,29,9,7,-235,-453,310,333
3815,2,22,-941,64,51,2,14,-226,-436,312,333
3816,2,22,-1060,36,1,-16,43,-203,-427,309,337
3817,2,22,-1006,-17,-31,-8,-44,-194,-411,315,333
3818,2,22,-940,0,-24,-10,-49,-253,-399,321,331
3819,2,22,-905,-30,8,-20,30,-317,-385,330,337
3821,2,22,-1005,-69,7,7,53,-125,-373,334,337
3822,2,22,-1060,-96,-65,-37,64,-5,-372,342,351
3823,2,22,-962,-95,-66,15,-53,-18,-370,334,336
3824,2,22,-967,-80,19,31,-80,-51,-360,334,348
3825,2,22,-995,-81,5,23,56,-40,-367,336,337
3827,2,22,-980,-85,-80,-11,230,-22,-367,334,357
3828,2,22,-1001,-94,-95,-12,149,-18,-360,340,366
3829,2,22,-996,-96,-102,-13,65,-4,-361,336,370
3830,2,22,-985,-94,-93,-14,23,4,-360,342,373
3831,2,22,-989,-96,-94,-15,12,3,-358,342,378
3832,2,22,-983,-95,-96,-11,9,-3,-367,340,381
3899,2,23,-980,-98,-155,-2,-38,0,-360,345,400
3900,2,23,-996,-104,-173,0,-79,15,-361,345,400
3901,2,23,-998,-98,-150,-6,-118,57,-361,340,402
3902,2,23,-992,-80,-154,-3,-136,79,-360,343,393
3903,2,23,-975,-75,-113,-14,-170,123,-364,336,388
3904,2,23,-993,-47,-95,-26,-105,169,-376,334,378
3905,2,23,-1065,23,-133,-18,-54,246,-384,336,381
3906,2,23,-1009,-6,-93,11,-250,357,-402,331,375
3907,2,23,-931,46,-85,-1,-193,368,-408,321,364
3908,2,23,-920,99,-51,-30,-6,355,-432,315,363
3909,2,23,-1063,102,-72,-74,11,354,-445,307,366
3910,2,23,-957,177,-91,-70,-72,361,-466,301,358
3911,2,23,-1010,191,-97,-61,-86,382,-481,282,360
3912,2,23,-958,206,-55,-51,-63,364,-502,280,352
3913,2,23,-931,226,-61,-53,-23,372,-528,262,355
3914,2,23,-876,253,-37,-59,16,388,-553,247,342
3915,2,23,-935,255,-51,-84,65,387,-589,229,330
3916,2,23,-954,260,-71,-84,47,336,-609,202,331
3917,2,23,-918,305,-95,-81,49,298,-640,178,312
3918,2,23,-977,312,-98,-81,28,270,-676,141,303
3919,2,23,-921,349,-103,-42,-46,246,-703,109,285
3920,2,23,-913,396,-83,-37,-72,239,-726,55,262
3921,2,23,-888,420,-94,-39,-118,257,-751,-1,234
3922,2,23,-893,430,-49,-29,-88,263,-763,-70,187
3923,2,23,-870,426,-64,-28,-105,245,-771,-153,148
3924,2,23,-891,433,-49,-28,-86,233,-751,-250,99
3925,2,23,-845,475,-45,-17,-84,212,-711,-331,48
3926,2,23,-865,473,-30,-21,-67,205,-655,-417,-7
3927,2,23,-841,491,-41,-5,-47,196,-570,-490,-67
3928,2,23,-850,509,-26,12,-34,188,-457,-552,-123
3929,2,23,-814,539,-34,23,-56,175,-345,-595,-166
3930,2,23,-810,541,-34,18,-5,172,-201,-612,-192
3931,2,23,-821,551,-50,24,-7,163,-40,-580,-216
3932,2,23,-774,562,-69,14,-31,170,88,-502,-198
3933,2,23,-850,535,-67,7,-42,158,195,-381,-168
3934,2,23,-837,549,-62,28,-102,129,225,-235,-121
3935,2,23,-839,506,-32,31,-93,84,216,-153,-94
3936,2,23,-846,513,-21,0,-92,28,205,-132,-84
3937,2,23,-782,576,-25,-25,-86,-10,208,-147,-93
3938,2,23,-784,617,-34,-14,-84,0,223,-181,-109
3939,2,23,-768,624,-9,-12,-48,0,220,-214,-124
3940,2,23,-786,595,-23,-1,-37,-1,216,-237,-133
3941,2,23,-793,589,-27,-4,-40,-21,225,-267,-142
3942,2,23,-797,555,-10,15,16,-56,225,-301,-156
3943,2,23,-807,555,-25,15,0,-63,213,-363,-174
3944,2,23,-774,587,-43,16,-21,-53,180,-442,-190
3945,2,23,-791,612,-16,13,9,-65,151,-520,-219
3946,2,23,-789,621,-36,5,-32,-47,84,-577,-234
3947,2,23,-808,571,-39,8,45,-91,43,-612,-219
3948,2,23,-802,546,-24,15,49,-98,-9,-633,-220
3949,2,23,-816,535,-48,2,10,-98,-73,-667,-213
3950,2,23,-824,551,-45,-3,1,-96,-147,-709,-192
3951,2,23,-806,554,-65,4,-18,-98,-231,-717,-171
3952,2,23,-798,577,-65,7,-37,-76,-301,-730,-151
3953,2,23,-825,564,-47,8,-23,-67,-360,-723,-133
3954,2,23,-838,509,-50,4,-5,-82,-424,-703,-108
3955,2,23,-858,480,-46,-2,-20,-98,-472,-681,-84
3956,2,23,-864,461,-47,-10,-20,-127,-547,-645,-45
3957,2,23,-880,441,-71,-6,-49,-161,-621,-576,9
3958,2,23,-878,450,-42,-2,-51,-195,-699,-483,67
3959,2,23,-885,451,-45,-19,-21,-247,-753,-352,129
3960,2,23,-890,411,-59,-24,-16,-284,-766,-246,177
3961,2,23,-887,390,-68,1,-48,-315,-759,-123,229
3962,2,23,-890,379,-58,14,-32,-347,-741,-18,262
3963,2,23,-910,357,-56,28,-22,-360,-708,64,295
3964,2,23,-907,381,-64,35,-11,-376,-676,117,315
3965,2,23,-907,318,-91,68,10,-384,-642,174,324
3966,2,23,-915,358,-26,53,21,-368,-612,205,325
3967,2,23,-963,352,-51,31,-34,-310,-577,231,345
3968,2,23,-997,268,-64,35,-65,-262,-556,247,346
3969,2,23,-937,222,-66,38,-81,-279,-544,247,352
3970,2,23,-938,168,-37,30,-63,-298,-522,259,349
3971,2,23,-980,149,-46,28,-63,-317,-504,276,352
3972,2,23,-967,161,-45,39,-96,-324,-487,283,354
3973,2,23,-974,154,-24,29,-81,-322,-469,292,354
3974,2,23,-1012,141,-37,14,-65,-298,-450,301,349
3975,2,23,-1057,135,-49,7,-84,-235,-438,309,345
3976,2,23,-1030,66,-21,22,-168,-104,-435,307,355
3977,2,23,-963,34,16,14,-150,-77,-430,309,340
3978,2,23,-943,15,26,-8,-37,-112,-427,304,334
3979,2,23,-973,-4,9,-21,32,-179,-421,313,345
3980,2,23,-935,12,13,-32,92,-274,-414,328,345
3981,2,23,-980,-19,-19,-22,100,-287,-396,328,358
3982,2,23,-1056,-18,-8,14,55,-239,-381,325,354
3983,2,23,-982,-65,-47,11,47,-143,-376,334,360
3984,2,23,-1038,-78,-75,2,70,-46,-367,340,351
3985,2,23,-984,-84,-79,23,52,-28,-369,333,366
3986,2,23,-970,-78,-43,29,65,-47,-367,343,366
3987,2,23,-972,-76,-49,7,120,-48,-364,337,375
3988,2,23,-998,-90,-97,-29,150,-18,-367,342,373
3989,2,23,-985,-94,-118,-24,100,-14,-358,343,388
3990,2,23,-982,-90,-120,-17,61,-17,-361,339,388
3991,2,23,-983,-90,-126,-19,56,-16,-367,336,394
3992,2,23,-986,-96,-133,-17,28,-7,-363,337,399
3993,2,23,-981,-94,-139,-12,4,-4,-360,339,391
3994,2,23,-977,-92,-129,-11,0,-4,-366,340,396
3995,2,23,-978,-94,-129,-14,11,-7,-361,328,393
4281,2,24,-964,-79,-182,-8,-34,-9,-367,339,426
4282,2,24,-969,-92,-195,-11,-8,-10,-366,343,429
4284,2,24,-967,-96,-197,11,-15,3,-372,337,411
4286,2,24,-976,-75,-209,-1,-8,-3,-363,334,411
4287,2,24,-971,-79,-201,-10,-46,0,-367,339,415
4289,2,24,-965,-94,-189,-10,-30,-1,-376,349,423
4290,2,24,-969,-89,-198,-2,-16,0,-364,337,420
4292,2,24,-970,-87,-201,-2,-16,-2,-369,343,412
4293,2,24,-971,-86,-199,-4,-24,-1,-358,330,424
4295,2,24,-969,-89,-197,-6,-28,0,-366,345,417
4297,2,24,-989,-90,-198,-6,-23,5,-366,343,418
4298,2,24,-1094,-96,-348,-2,-255,58,-366,340,414
4300,2,24,-926,-56,-58,60,-272,11,-373,340,388
4301,2,24,-929,-57,-22,18,-56,-32,-373,334,391
4303,2,24,-991,-87,-183,-57,249,-29,-363,346,402
4304,2,24,-999,-93,-213,-15,92,-21,-370,354,402
4306,2,24,-965,-77,-151,4,-11,-3,-358,349,405
4308,2,24,-975,-83,-180,-10,16,-9,-364,336,408
4309,2,24,-967,-82,-174,-15,28,-11,-367,345,409
4311,2,24,-962,-84,-186,-39,172,-24,-364,343,420
4312,2,24,-969,-91,-229,-39,185,-25,-364,343,427
4314,2,24,-974,-96,-274,-15,34,-7,-357,337,445
4315,2,24,-960,-89,-253,-2,-40,0,-360,334,444
4317,2,24,-956,-91,-244,-8,-16,-2,-358,346,438
4319,2,24,-957,-91,-250,-6,-14,-1,-360,346,444
4320,2,24,-958,-92,-251,-5,-18,0,-363,339,441
4322,2,24,-956,-90,-250,-7,-21,-2,-363,339,442
4323,2,24,-957,-91,-251,-6,-21,-1,-367,334,441
4325,2,24,-955,-93,-251,-7,-17,-1,-357,337,442
4326,2,24,-958,-91,-252,-4,-19,0,-363,340,442
4328,2,24,-956,-91,-253,-4,-30,0,-363,348,439
4330,2,24,-963,-95,-250,-2,-49,4,-367,348,438
4331,2,24,-960,-89,-258,0,-76,8,-366,348,445
4333,2,24,-982,-89,-278,5,-136,19,-367,343,435
4334,2,24,-994,-100,-279,26,-338,70,-369,339,430
4336,2,24,-961,-55,-141,4,-362,173,-382,337,405
4337,2,24,-960,-30,-89,-1,-202,205,-381,346,393
4339,2,24,-1032,49,-80,-55,178,307,-403,337,391
4341,2,24,-983,79,-180,-92,115,354,-447,315,406
4342,2,24,-962,83,-186,-90,30,322,-451,298,403
4344,2,24,-960,115,-187,-60,-105,227,-493,295,396
4345,2,24,-973,136,-181,-64,-142,214,-501,283,390
4347,2,24,-959,190,-158,-53,-160,193,-529,271,372
4348,2,24,-971,233,-133,-64,-142,190,-541,265,376
4350,2,24,-944,275,-98,-74,-131,228,-577,252,354
4352,2,24,-924,295,-77,-75,-92,252,-610,214,339
4353,2,24,-944,311,-81,-84,-77,239,-642,198,316
4355,2,24,-952,291,-59,-40,-46,175,-685,138,301
4356,2,24,-915,316,-67,-28,-81,149,-702,117,286
4358,2,24,-925,376,-75,-42,-58,104,-730,78,271
4359,2,24,-916,407,-69,-53,-72,117,-745,46,259
4361,2,24,-912,422,-29,-44,-111,142,-763,-18,216
4363,2,24,-877,420,-34,-50,-88,165,-771,-120,169
4364,2,24,-876,447,-30,-54,-94,162,-781,-169,147
4366,2,24,-883,471,6,-37,-87,151,-741,-318,84
4367,2,24,-842,488,3,-41,-88,166,-702,-406,45
4369,2,24,-808,492,-12,-42,-91,161,-568,-567,-10
4370,2,24,-873,503,9,-53,-67,161,-465,-634,-46
4372,2,24,-850,508,17,-34,-81,130,-244,-688,-79
4374,2,24,-858,488,25,-11,-58,66,-84,-667,-82
4375,2,24,-827,524,44,-1,-53,32,-54,-648,-78
4377,2,24,-845,529,50,15,-34,21,-12,-645,-84
4378,2,24,-808,549,31,27,-43,-1,-18,-654,-81
4380,2,24,-764,617,6,16,2,-1,-13,-669,-91
4381,2,24,-826,576,32,-4,64,30,21,-663,-108
4383,2,24,-832,520,15,14,-60,42,90,-631,-105
4385,2,24,-821,530,20,-3,-25,4,100,-624,-97
4386,2,24,-834,522,23,-4,-51,-14,90,-636,-102
4388,2,24,-835,538,7,-2,-56,-44,15,-694,-103
4389,2,24,-804,570,46,-7,-65,-37,-57,-726,-102
4391,2,24,-802,581,34,-4,-11,-14,-136,-753,-103
4392,2,24,-827,558,29,6,-16,-7,-156,-760,-106
4394,2,24,-874,496,39,11,-18,-38,-210,-762,-96
4396,2,24,-873,475,32,17,-23,-95,-337,-729,-45
4397,2,24,-911,419,50,8,42,-208,-459,-675,-12
4399,2,24,-835,495,51,-20,-25,-275,-675,-438,99
4400,2,24,-885,474,17,-11,-15,-288,-736,-319,156
4402,2,24,-864,449,2,3,6,-303,-745,-100,229
4403,2,24,-892,429,-11,22,-13,-259,-738,-21,261
4405,2,24,-922,388,28,46,-17,-228,-699,94,280
4407,2,24,-934,343,5,7,-11,-226,-657,150,309
4408,2,24,-934,317,-12,18,-35,-219,-645,172,307
4410,2,24,-917,275,24,46,-107,-206,-601,202,313
4411,2,24,-970,214,52,43,-40,-241,-582,213,321
4413,2,24,-973,225,27,37,31,-310,-549,259,322
4414,2,24,-974,203,6,43,0,-307,-528,273,321
4416,2,24,-974,159,20,49,52,-277,-496,282,327
4418,2,24,-991,102,-5,14,95,-245,-469,301,339
4419,2,24,-985,116,-14,-1,109,-241,-460,301,343
4421,2,24,-1004,35,-37,2,72,-187,-435,312,345
4422,2,24,-982,10,-35,2,64,-189,-429,318,364
4424,2,24,-1044,-36,-97,-6,-66,-198,-411,325,361
4425,2,24,-983,1,-73,18,-82,-248,-399,331,361
4427,2,24,-1018,-55,2,23,-43,-59,-379,334,351
4429,2,24,-965,-63,-44,-4,51,-2,-378,342,364
4430,2,24,-953,-62,-35,23,109,-62,-376,334,363
4431,2,24,-987,-68,-61,0,212,-74,-378,343,372
4514,2,25,-964,-96,-221,-4,-25,0,-360,346,427
4515,2,25,-964,-94,-220,-4,-25,0,-366,345,423
4516,2,25,-967,-95,-224,-4,-28,0,-357,346,436
4517,2,25,-975,-98,-233,2,-63,4,-363,342,426
4519,2,25,-971,-94,-209,7,-96,13,-366,351,426
4520,2,25,-977,-95,-218,14,-125,19,-364,349,421
4521,2,25,-982,-90,-211,24,-176,39,-372,339,414
4522,2,25,-960,-88,-162,18,-151,38,-367,343,405
4524,2,25,-971,-80,-167,5,-115,52,-367,333,406
4525,2,25,-969,-72,-150,2,-99,54,-375,342,400
4526,2,25,-989,-64,-143,0,-92,79,-369,343,394
4527,2,25,-973,-57,-130,-1,-65,105,-381,336,391
4529,2,25,-1011,-5,-145,-14,0,233,-393,337,391
4530,2,25,-1017,39,-151,-11,-70,321,-418,325,397
4531,2,25,-977,92,-170,-3,-112,359,-420,321,387
4533,2,25,-958,83,-119,-11,-175,310,-466,309,378
4534,2,25,-938,93,-108,-18,-143,271,-481,298,381
4535,2,25,-956,130,-86,-30,-91,252,-483,304,366
4536,2,25,-969,141,-88,-44,-70,231,-502,285,361
4538,2,25,-936,160,-89,-32,-54,196,-543,270,355
4539,2,25,-951,195,-112,-25,-5,184,-541,262,357
4540,2,25,-965,131,-63,6,17,155,-549,253,352
4541,2,25,-930,225,-107,-14,-69,116,-564,256,354
4543,2,25,-953,294,-111,-42,-2,151,-583,234,343
4544,2,25,-974,330,-99,-58,-32,191,-591,225,333
4545,2,25,-939,302,-98,-24,-98,226,-610,217,339
4546,2,25,-921,332,-37,-19,-57,235,-625,195,321
4548,2,25,-920,324,-59,-36,-36,221,-657,141,292
4549,2,25,-910,302,-55,-36,-18,199,-681,111,271
4550,2,25,-904,327,-79,-35,-33,167,-703,85,249
4551,2,25,-912,339,-90,-28,-1,144,-708,49,237
4553,2,25,-886,396,-98,-32,-32,88,-729,-12,201
4554,2,25,-918,431,-99,-58,-65,92,-745,-28,184
4555,2,25,-911,442,-85,-68,-90,114,-739,-60,174
4556,2,25,-898,449,-71,-74,-127,126,-738,-96,151
4558,2,25,-892,471,-15,-79,-129,165,-706,-190,96
4559,2,25,-849,481,-40,-74,-158,177,-664,-237,69
4560,2,25,-892,486,10,-84,-107,186,-633,-291,25
4562,2,25,-847,470,24,-70,-79,184,-502,-381,-31
4563,2,25,-861,446,3,-28,-84,166,-435,-417,-75
4564,2,25,-866,485,26,-20,-56,106,-376,-418,-72
4565,2,25,-818,540,40,-28,-39,91,-319,-427,-88
4567,2,25,-856,521,33,-22,16,99,-183,-436,-99
4568,2,25,-813,555,0,-4,-20,66,-126,-433,-90
4569,2,25,-845,534,13,28,18,70,-70,-417,-94
4570,2,25,-796,579,-1,28,-24,59,-37,-405,-91
4572,2,25,-822,550,9,8,-10,33,24,-361,-85
4573,2,25,-819,547,12,4,-2,37,43,-330,-67
4574,2,25,-787,593,-16,2,-21,35,63,-315,-70
4575,2,25,-793,564,11,1,0,52,76,-292,-66
4577,2,25,-820,531,17,-4,-27,15,91,-253,-48
4578,2,25,-808,552,-12,-4,-50,-7,105,-262,-52
4579,2,25,-806,550,11,-2,-49,-15,106,-273,-72
4580,2,25,-806,570,13,9,-46,-27,99,-316,-81
4582,2,25,-806,602,-5,7,-18,-24,93,-394,-115
4583,2,25,-814,578,-2,3,-7,-20,88,-427,-130
4584,2,25,-810,569,11,2,-38,-26,67,-438,-124
4585,2,25,-825,535,-2,0,-35,-34,46,-457,-135
4587,2,25,-816,538,34,4,-25,-68,-48,-513,-145
4588,2,25,-838,522,14,-3,11,-119,-124,-549,-148
4589,2,25,-805,547,25,-11,0,-121,-207,-583,-127
4591,2,25,-827,523,-16,18,-28,-100,-379,-612,-96
4592,2,25,-866,527,40,-6,30,-116,-477,-598,-75
4593,2,25,-869,498,-3,-11,31,-182,-552,-579,-36
4594,2,25,-869,471,-20,-5,-3,-203,-631,-508,13
4596,2,25,-858,450,-21,23,-50,-210,-733,-328,121
4597,2,25,-865,450,-8,20,-25,-208,-751,-225,151
4598,2,25,-903,416,-9,9,14,-231,-756,-151,184
4599,2,25,-885,405,-18,10,1,-236,-750,-52,223
4601,2,25,-901,407,-1,13,-40,-202,-715,46,256
4602,2,25,-923,399,-14,5,-21,-196,-693,85,279
4603,2,25,-904,353,-31,21,-33,-183,-685,114,282
4604,2,25,-949,298,-19,53,-9,-199,-663,144,292
4606,2,25,-919,306,-12,42,12,-240,-625,189,310
4607,2,25,-923,329,-11,2,-5,-218,-612,205,313
4608,2,25,-1010,310,-53,-19,-56,-140,-598,223,318
4609,2,25,-969,200,-22,19,-55,-151,-588,223,333
4611,2,25,-932,216,10,30,3,-252,-547,258,328
4612,2,25,-977,221,-15,25,41,-253,-540,261,334
4613,2,25,-984,212,-46,27,36,-239,-523,274,342
4614,2,25,-987,186,-51,28,19,-188,-516,288,340
4616,2,25,-994,133,-51,6,-2,-109,-499,291,349
4617,2,25,-989,117,-57,4,-32,-108,-484,292,343
4618,2,25,-996,85,-52,8,-74,-120,-481,298,339
4620,2,25,-965,60,-27,19,-54,-221,-460,306,340
4621,2,25,-975,49,-6,21,-20,-257,-453,312,355
4622,2,25,-987,62,-14,12,22,-295,-435,315,354
4623,2,25,-1007,52,-51,18,-16,-282,-420,322,348
4625,2,25,-1006,-17,-79,-3,-40,-168,-397,330,355
4626,2,25,-1000,-42,-48,0,-39,-123,-393,337,354
4627,2,25,-1010,-58,-40,3,-86,-77,-393,343,352
4628,2,25,-962,-52,-6,15,-33,-83,-396,342,348
4630,2,25,-977,-63,-28,-8,256,-77,-382,336,360
4631,2,25,-1017,-78,-137,-32,260,-47,-378,334,372
4632,2,25,-1002,-71,-163,-16,78,-28,-372,343,379
4633,2,25,-976,-70,-109,-4,-32,-9,-382,346,384
4634,2,25,-974,-76,-97,-5,-4,-8,-384,337,381
4680,2,26,-969,-93,-200,-5,-21,0,-363,343,417
4681,2,26,-968,-93,-199,-6,-23,0,-366,348,415
4683,2,26,-968,-94,-199,-6,-22,-1,-363,348,415
4684,2,26,-968,-94,-200,-5,-23,0,-360,340,421
4686,2,26,-969,-94,-200,-5,-23,0,-360,348,418
4687,2,26,-968,-94,-200,-5,-23,0,-364,351,417
4689,2,26,-968,-94,-201,-5,-24,0,-370,343,418
4690,2,26,-967,-94,-200,-5,-23,0,-363,340,432
4692,2,26,-969,-93,-201,-6,-23,0,-364,343,423
4693,2,26,-967,-92,-201,-5,-25,0,-366,346,421
4695,2,26,-968,-94,-203,-4,-23,0,-375,346,429
4696,2,26,-968,-93,-203,-5,-24,0,-364,343,427
4698,2,26,-967,-94,-203,-5,-25,0,-364,342,423
4699,2,26,-967,-95,-201,-4,-25,0,-366,342,426
4701,2,26,-969,-94,-203,-4,-25,0,-363,342,424
4702,2,26,-968,-94,-203,-4,-26,0,-366,346,420
4704,2,26,-968,-94,-202,-4,-25,0,-370,342,427
4705,2,26,-968,-93,-202,-4,-25,0,-360,345,420
4707,2,26,-967,-93,-201,-4,-25,0,-370,345,427
4708,2,26,-969,-93,-204,-5,-25,0,-367,351,426
4710,2,26,-966,-94,-202,-4,-25,0,-370,348,418
4711,2,26,-968,-94,-202,-4,-25,0,-367,339,424
4713,2,26,-968,-94,-203,-4,-25,0,-372,345,423
4714,2,26,-969,-94,-203,-4,-27,0,-372,340,421
4715,2,26,-967,-93,-203,-4,-30,0,-373,340,424
4717,2,26,-968,-93,-203,-4,-28,0,-370,346,424
4718,2,26,-967,-93,-201,-4,-28,0,-361,357,421
4720,2,26,-971,-94,-208,2,-67,7,-366,346,423
4721,2,26,-976,-90,-204,4,-81,9,-372,352,427
4723,2,26,-983,-89,-194,30,-213,46,-363,346,408
4724,2,26,-981,-80,-176,29,-246,67,-372,340,399
4726,2,26,-970,-70,-97,16,-186,76,-379,345,390
4727,2,26,-971,-64,-94,4,-104,63,-376,336,384
4729,2,26,-983,-53,-93,-9,-42,84,-381,339,387
4730,2,26,-987,-36,-104,-18,-8,95,-393,339,379
4732,2,26,-1005,22,-97,-27,22,201,-405,333,381
4733,2,26,-1064,52,-152,-36,42,270,-409,325,385
4735,2,26,-950,104,-112,-53,-13,354,-444,318,373
4736,2,26,-1005,99,-109,-84,14,337,-460,300,384
4738,2,26,-1001,157,-135,-93,-93,312,-511,282,369
4739,2,26,-954,205,-117,-93,-96,311,-525,274,366
4741,2,26,-949,261,-85,-91,-124,312,-571,244,349
4742,2,26,-928,275,-76,-93,-103,336,-606,235,339
4744,2,26,-951,314,-77,-102,-70,304,-658,184,306
4745,2,26,-946,329,-71,-96,-79,292,-687,135,286
4747,2,26,-899,368,-50,-75,-121,287,-741,30,234
4748,2,26,-884,394,-32,-62,-143,274,-756,-51,199
4750,2,26,-911,413,1,-57,-94,246,-751,-229,96
4751,2,26,-870,479,-9,-45,-131,232,-708,-310,57
4753,2,26,-835,511,25,-2,-99,233,-546,-484,-45
4754,2,26,-831,530,20,-11,-84,244,-406,-547,-93
4756,2,26,-858,512,17,-12,-41,210,-99,-519,-136
4757,2,26,-830,493,7,-19,-81,183,12,-426,-118
4759,2,26,-836,513,32,-23,-52,93,90,-258,-72
4760,2,26,-833,541,25,-32,-56,46,105,-211,-64
4762,2,26,-826,554,50,-4,-76,9,90,-174,-52
4763,2,26,-775,591,46,0,-84,4,90,-189,-57
4765,2,26,-786,590,41,14,8,-2,102,-208,-63
4766,2,26,-805,570,42,15,-4,0,96,-196,-57
4768,2,26,-808,582,27,8,-70,-22,120,-231,-69
4769,2,26,-810,578,19,-7,-76,-24,115,-261,-97
4771,2,26,-804,588,64,0,-102,-21,66,-310,-117
4772,2,26,-792,558,70,2,-81,-35,33,-334,-114
4774,2,26,-804,545,56,-1,-33,-56,-12,-396,-123
4775,2,26,-819,545,62,-3,0,-76,-40,-435,-120
4777,2,26,-819,555,52,2,-25,-105,-132,-523,-124
4778,2,26,-799,571,55,-3,-36,-92,-204,-556,-117
4780,2,26,-815,568,46,-5,-42,-40,-313,-573,-106
4781,2,26,-831,535,56,0,-7,-48,-352,-559,-97
4783,2,26,-852,486,70,7,-16,-84,-421,-540,-75
4784,2,26,-864,483,61,3,-18,-109,-474,-522,-54
4786,2,26,-855,469,65,5,3,-178,-603,-433,15
4787,2,26,-874,437,40,6,9,-204,-666,-361,54
4788,2,26,-902,409,62,16,11,-239,-705,-288,106
4790,2,26,-899,372,27,10,-5,-353,-735,-82,190
4791,2,26,-895,382,29,4,-15,-370,-724,6,229
4793,2,26,-916,380,28,1,-37,-336,-660,132,262
4794,2,26,-911,361,33,25,-37,-310,-642,168,279
4796,2,26,-945,281,17,44,-35,-269,-597,216,298
4797,2,26,-959,253,39,46,-52,-267,-576,223,300
4799,2,26,-951,191,54,56,-40,-262,-537,262,309
4800,2,26,-941,199,45,39,-9,-278,-522,271,315
4802,2,26,-972,120,34,29,2,-259,-501,280,315
4803,2,26,-969,160,46,18,42,-270,-487,297,321
4805,2,26,-964,106,33,-1,117,-249,-444,315,333
4806,2,26,-1002,51,17,-15,145,-217,-444,315,331
4808,2,26,-997,25,-52,2,6,-163,-426,321,342
4809,2,26,-980,-4,-30,11,-23,-164,-418,324,343
4811,2,26,-997,-29,-29,25,-120,-166,-402,331,348
4812,2,26,-999,-28,6,33,-77,-144,-393,331,340
4814,2,26,-1013,-81,-31,14,99,-23,-390,340,340
4815,2,26,-988,-75,-32,2,77,-11,-381,343,355
4817,2,26,-962,-55,-19,0,71,-67,-384,339,360
4818,2,26,-1003,-73,-53,-21,133,-51,-384,340,361
4820,2,26,-988,-79,-98,-18,35,-11,-381,348,372
4821,2,26,-979,-76,-71,-13,31,-14,-376,345,373
4822,2,26,-985,-78,-88,-19,60,-17,-379,343,375
4924,2,27,-983,-87,-123,1,-45,0,-379,345,384
4925,2,27,-978,-80,-119,1,-25,-3,-370,348,388
4926,2,27,-978,-82,-121,5,-9,-6,-376,337,399
4927,2,27,-979,-83,-125,3,0,-3,-372,334,384
4928,2,27,-988,-82,-144,4,-16,-2,-372,345,387
4930,2,27,-978,-83,-113,7,-98,28,-378,351,378
4931,2,27,-984,-67,-137,-1,-75,22,-379,348,379
4932,2,27,-995,-76,-110,-7,-141,60,-378,346,379
4933,2,27,-984,-57,-84,-21,-97,85,-381,333,379
4934,2,27,-978,-50,-83,-23,-63,114,-390,331,376
4935,2,27,-978,-41,-86,-30,-11,126,-388,340,373
4937,2,27,-1007,19,-108,-42,77,184,-411,337,381
4938,2,27,-1033,51,-143,-44,11,281,-414,327,375
4939,2,27,-1048,112,-129,-56,-58,379,-438,328,372
4940,2,27,-1003,140,-124,-78,-139,483,-451,312,370
4941,2,27,-942,130,-81,-95,-105,455,-489,295,372
4943,2,27,-944,174,-105,-114,-26,340,-523,273,360
4944,2,27,-1022,189,-93,-76,-88,312,-555,259,351
4945,2,27,-951,262,-98,-45,-168,323,-582,244,342
4946,2,27,-929,275,-56,-43,-133,347,-592,223,330
4947,2,27,-906,281,-17,-50,-23,334,-630,196,321
4949,2,27,-973,298,-58,-97,70,258,-697,130,283
4950,2,27,-923,325,-92,-65,-29,235,-721,79,267
4951,2,27,-921,349,-109,-53,-76,223,-748,42,237
4952,2,27,-910,366,-80,-39,-124,209,-768,-15,207
4953,2,27,-892,392,-52,-30,-119,187,-781,-81,180
4954,2,27,-896,418,-31,-48,-105,170,-771,-136,157
4956,2,27,-870,476,-29,-38,-114,151,-757,-252,81
4957,2,27,-853,481,-18,-32,-104,179,-703,-342,37
4958,2,27,-861,491,0,-15,-83,182,-663,-403,-1
4959,2,27,-819,535,5,-16,-104,188,-577,-478,-46
4960,2,27,-805,519,-22,-7,-99,238,-466,-550,-97
4962,2,27,-827,543,-9,4,-74,231,-145,-553,-154
4963,2,27,-812,545,26,7,-48,222,-3,-460,-151
4964,2,27,-814,563,12,18,-65,207,96,-316,-114
4965,2,27,-818,557,0,7,-42,195,117,-174,-57
4966,2,27,-820,529,13,6,-14,169,108,-34,-3
4968,2,27,-831,490,0,-3,-8,56,42,118,66
4969,2,27,-851,516,5,-8,-20,-5,42,130,82
4970,2,27,-765,592,-8,1,-80,-25,70,108,73
4971,2,27,-781,634,4,0,-71,-16,97,76,36
4972,2,27,-743,629,-6,16,-74,-2,123,40,25
4973,2,27,-763,640,37,11,-16,-7,124,34,3
4975,2,27,-832,560,8,-11,-28,-16,154,16,0
4976,2,27,-793,568,-7,-25,-65,-27,177,-24,-16
4977,2,27,-790,580,13,-39,-79,-34,198,-85,-54
4978,2,27,-798,630,-7,-30,-107,-37,213,-148,-81
4979,2,27,-783,579,35,-35,-53,-42,196,-216,-99
4981,2,27,-806,557,40,-8,-33,-105,145,-360,-144
4982,2,27,-785,563,50,9,-9,-119,103,-445,-159
4983,2,27,-786,601,34,12,-14,-105,48,-537,-178
4984,2,27,-763,605,33,14,0,-73,-13,-598,-178
4985,2,27,-804,591,17,2,58,-79,-55,-657,-184
4987,2,27,-834,550,-2,-3,13,-56,-117,-720,-177
4988,2,27,-820,546,-3,-3,-31,-47,-156,-730,-178
4989,2,27,-838,538,0,-13,-55,-43,-192,-742,-165
4990,2,27,-827,540,12,-16,-58,-42,-234,-732,-148
4991,2,27,-835,521,17,-15,-54,-44,-277,-736,-136
4992,2,27,-829,524,24,-7,-64,-49,-324,-715,-132
4994,2,27,-840,516,28,-2,-43,-69,-430,-685,-90
4995,2,27,-841,521,24,-6,-27,-81,-477,-670,-72
4996,2,27,-839,501,25,-5,-14,-83,-534,-648,-49
4997,2,27,-850,498,19,-6,-9,-90,-588,-615,-24
4998,2,27,-856,484,19,0,-30,-97,-616,-568,-1
5000,2,27,-871,467,21,-7,-18,-116,-702,-468,54
5001,2,27,-891,445,9,-4,-32,-127,-729,-409,87
5002,2,27,-886,424,10,7,-47,-144,-750,-342,117
5003,2,27,-887,407,22,11,-46,-182,-759,-238,154
5004,2,27,-891,385,24,8,-22,-219,-775,-162,189
5006,2,27,-890,409,25,22,-16,-278,-735,-6,241
5007,2,27,-898,389,28,19,21,-281,-718,61,249
5008,2,27,-909,361,16,28,30,-273,-697,102,270
5009,2,27,-901,387,4,25,21,-256,-672,144,280
5010,2,27,-936,376,13,28,26,-214,-654,175,291
5011,2,27,-945,304,-9,38,18,-193,-631,190,306
5013,2,27,-946,236,-3,43,14,-254,-597,214,325
5014,2,27,-952,247,-19,30,8,-259,-576,234,316
5015,2,27,-971,248,-34,21,-13,-242,-564,249,319
5016,2,27,-995,220,-30,32,-27,-235,-543,258,324
5017,2,27,-967,189,-27,41,-62,-222,-525,273,330
5019,2,27,-987,143,-14,23,7,-225,-501,285,340
5020,2,27,-968,141,-24,22,0,-221,-490,297,336
5021,2,27,-975,136,-3,14,9,-201,-475,300,340
5022,2,27,-988,109,-29,7,28,-176,-463,301,340
5023,2,27,-985,86,-28,9,21,-148,-468,306,339
5025,2,27,-997,49,-40,-4,28,-137,-456,321,348
5026,2,27,-958,40,-58,-17,14,-136,-444,310,351
5027,2,27,-1000,17,-43,-11,53,-162,-435,322,349
5028,2,27,-1003,5,-57,-7,32,-177,-427,327,349
5029,2,27,-983,-1,-68,5,-4,-178,-420,325,366
5030,2,27,-988,-20,-59,9,-18,-172,-405,336,358
5032,2,27,-1002,-46,-53,35,-51,-129,-400,342,357
5033,2,27,-1004,-48,-56,39,-30,-101,-394,337,366
5034,2,27,-979,-66,-30,37,-7,-58,-387,342,357
5035,2,27,-996,-63,-61,8,55,-26,-382,340,367
5036,2,27,-974,-68,-67,-3,66,-24,-387,339,370
5037,2,27,-975,-74,-65,-8,82,-45,-397,340,375
5128,2,28,-976,-90,-156,-4,-26,0,-363,342,405
5129,2,28,-975,-88,-157,-5,-26,0,-366,343,406
5130,2,28,-975,-90,-152,-5,-25,0,-369,343,405
5131,2,28,-977,-89,-158,-4,-24,0,-367,342,397
5133,2,28,-977,-89,-159,-5,-25,0,-369,345,402
5134,2,28,-977,-89,-155,-5,-25,0,-375,342,399
5135,2,28,-976,-89,-156,-4,-28,0,-363,351,402
5136,2,28,-975,-90,-155,-4,-24,0,-378,343,403
5138,2,28,-976,-89,-157,-4,-26,0,-369,351,397
5139,2,28,-976,-88,-157,-4,-28,-1,-375,345,405
5140,2,28,-980,-89,-162,-4,-39,2,-364,349,397
5141,2,28,-982,-91,-155,-2,-49,7,-367,349,396
5143,2,28,-975,-87,-140,-2,-29,0,-375,342,400
5144,2,28,-977,-91,-150,-3,-24,-1,-375,342,397
5145,2,28,-976,-86,-147,-3,-30,0,-373,346,393
5146,2,28,-976,-87,-148,-4,-25,-1,-378,346,405
5148,2,28,-979,-89,-150,-4,-23,0,-379,348,396
5149,2,28,-976,-88,-148,-5,-21,-1,-369,342,396
5150,2,28,-976,-89,-149,-6,-14,-2,-373,354,394
5151,2,28,-980,-90,-154,-5,-18,-2,-376,354,396
5153,2,28,-1065,-89,-243,-49,-275,121,-369,336,393
5154,2,28,-958,-65,-75,-21,-268,191,-375,339,381
5155,2,28,-960,-17,-76,-28,-103,216,-387,339,384
5156,2,28,-1000,0,-126,-23,7,254,-393,322,366
5158,2,28,-1063,87,-92,13,-340,415,-439,322,361
5159,2,28,-954,88,-56,32,-376,440,-453,307,361
5160,2,28,-936,115,2,5,-184,354,-474,295,342
5161,2,28,-832,136,15,-16,21,294,-490,288,340
5163,2,28,-1055,184,-52,-89,193,260,-529,268,351
5164,2,28,-948,221,-92,-54,82,264,-552,262,351
5165,2,28,-1026,257,-101,-76,61,305,-580,249,351
5166,2,28,-883,277,-94,-46,10,321,-600,223,345
5168,2,28,-972,263,-74,-49,21,290,-669,168,307
5169,2,28,-915,304,-95,-51,-39,252,-697,132,309
5170,2,28,-930,292,-90,-49,-51,231,-715,102,276
5171,2,28,-942,314,-80,-38,-50,182,-747,61,256
5173,2,28,-913,381,-94,-25,-88,162,-771,-25,219
5174,2,28,-899,421,-68,-17,-88,147,-783,-66,199
5175,2,28,-873,412,-79,-9,-93,158,-787,-115,171
5176,2,28,-908,428,-29,-9,-32,146,-787,-168,144
5178,2,28,-875,457,-53,-2,-9,159,-772,-297,73
5179,2,28,-877,479,-55,5,2,149,-744,-373,25
5180,2,28,-845,500,-66,-1,-13,158,-696,-471,-16
5181,2,28,-838,498,-71,-2,-40,185,-613,-562,-78
5183,2,28,-860,526,-51,-28,-79,200,-343,-706,-175
5184,2,28,-849,494,-69,-31,-100,201,-138,-693,-202
5185,2,28,-861,513,-35,-56,-116,162,4,-615,-195
5186,2,28,-811,515,-30,-80,-106,155,97,-520,-162
5188,2,28,-842,517,-18,-45,-92,69,178,-364,-126
5189,2,28,-809,546,-18,-24,-84,48,177,-334,-105
5190,2,28,-813,539,3,-9,-48,26,181,-316,-105
5191,2,28,-827,524,28,0,-23,-1,184,-310,-99
5193,2,28,-831,558,-23,5,-14,-30,207,-393,-127
5194,2,28,-801,584,-10,9,-23,-30,211,-450,-144
5195,2,28,-802,578,-20,11,-18,-27,196,-495,-162
5196,2,28,-819,557,-17,-1,-1,-28,189,-535,-160
5198,2,28,-831,530,-31,-4,-47,-35,114,-616,-183
5199,2,28,-817,567,1,-20,-53,-35,42,-648,-190
5200,2,28,-817,562,14,-22,-11,-46,-31,-687,-196
5201,2,28,-803,551,11,-13,16,-68,-105,-711,-196
5203,2,28,-817,538,-7,2,-2,-90,-244,-748,-165
5204,2,28,-833,539,-30,9,-9,-93,-343,-757,-157
5205,2,28,-818,542,-10,4,-7,-79,-417,-736,-124
5206,2,28,-841,548,-29,-6,1,-78,-471,-729,-103
5208,2,28,-876,467,-21,-9,-61,-95,-589,-648,-45
5209,2,28,-895,433,-1,-13,-64,-156,-637,-577,12
5210,2,28,-856,432,14,-27,-61,-205,-702,-477,52
5211,2,28,-897,425,-5,-27,-35,-243,-751,-378,114
5213,2,28,-871,416,-1,2,-12,-297,-777,-141,210
5214,2,28,-894,409,-15,8,23,-303,-762,-46,246
5215,2,28,-884,411,-33,32,2,-291,-739,18,271
5216,2,28,-907,415,-13,18,21,-296,-703,87,288
5218,2,28,-936,355,-35,1,-28,-219,-661,151,309
5219,2,28,-960,322,-51,7,-68,-187,-646,175,315
5220,2,28,-948,295,-18,16,-94,-175,-631,201,309
5221,2,28,-961,259,-15,13,-83,-171,-616,198,315
5223,2,28,-972,220,23,50,-65,-234,-576,229,316
5224,2,28,-933,213,15,37,-14,-261,-565,247,322
5225,2,28,-964,214,5,35,19,-276,-543,264,322
5226,2,28,-982,194,-1,42,44,-275,-519,282,334
5228,2,28,-1000,147,-9,26,60,-233,-496,288,340
5229,2,28,-979,122,-49,17,33,-219,-475,297,336
5230,2,28,-979,100,-23,5,21,-217,-471,306,352
5231,2,28,-979,84,-52,0,6,-202,-459,316,349
5233,2,28,-983,44,-23,8,-30,-197,-438,312,349
5234,2,28,-996,24,-25,9,-34,-196,-429,313,358
5235,2,28,-1002,10,-51,7,-43,-192,-417,327,346
5236,2,28,-982,-1,-29,30,-2,-203,-418,325,352
5238,2,28,-953,-29,4,11,19,-145,-394,336,357
5239,2,28,-999,-45,-31,16,74,-144,-387,337,358
5240,2,28,-992,-71,-61,5,94,-87,-390,343,363
5241,2,28,-1000,-77,-83,-8,106,-46,-376,343,366
5243,2,28,-983,-74,-84,-7,59,-35,-379,349,366
5244,2,28,-988,-82,-91,-10,50,-30,-382,348,375
5245,2,28,-989,-82,-106,-21,55,-18,-379,346,375
5246,2,28,-987,-83,-115,-18,36,-11,-381,345,384
5247,2,28,-984,-81,-111,-18,24,-11,-385,345,382
5330,2,29,-975,-90,-160,-5,-26,0,-370,343,412
5331,2,29,-975,-90,-159,-5,-25,0,-367,340,403
5332,2,29,-976,-91,-158,-4,-25,0,-367,340,406
5333,2,29,-976,-91,-161,-4,-23,0,-372,340,402
5334,2,29,-976,-90,-159,-4,-25,0,-372,346,406
5336,2,29,-976,-90,-158,-5,-25,0,-366,345,402
5337,2,29,-976,-90,-160,-4,-26,0,-378,357,411
5338,2,29,-979,-90,-161,-3,-30,1,-367,346,411
5339,2,29,-978,-87,-163,-3,-39,2,-367,345,405
5341,2,29,-974,-88,-150,-2,-40,3,-366,346,406
5342,2,29,-985,-89,-170,-1,-44,2,-376,346,414
5343,2,29,-986,-87,-149,0,-85,19,-376,349,396
5344,2,29,-983,-83,-155,-4,-77,29,-373,337,402
5345,2,29,-1008,-79,-170,0,-125,58,-382,345,396
5347,2,29,-975,-51,-111,-25,7,113,-382,337,391
5348,2,29,-989,-32,-139,-28,23,163,-385,334,387
5349,2,29,-996,-12,-142,-26,16,205,-400,337,388
5350,2,29,-984,-8,-117,-17,-60,261,-408,325,394
5352,2,29,-996,73,-145,-41,-19,287,-439,324,388
5353,2,29,-1002,93,-140,-50,-38,311,-450,315,390
5354,2,29,-984,105,-133,-59,-74,317,-471,309,382
5355,2,29,-964,109,-134,-74,-94,303,-483,295,376
5356,2,29,-970,150,-149,-84,-95,275,-508,289,376
5358,2,29,-965,232,-106,-69,-77,276,-544,271,364
5359,2,29,-937,246,-94,-63,-77,306,-571,259,369
5360,2,29,-953,284,-94,-73,-53,320,-598,243,348
5361,2,29,-920,290,-92,-80,-60,338,-618,216,337
5363,2,29,-931,312,-89,-81,-64,310,-702,144,306
5364,2,29,-942,319,-83,-74,-73,290,-739,91,282
5365,2,29,-899,348,-82,-59,-105,275,-768,25,246
5366,2,29,-916,360,-79,-47,-114,250,-786,-64,219
5367,2,29,-879,395,-47,-40,-117,231,-790,-142,193
5369,2,29,-874,401,-54,-37,-97,184,-787,-321,112
5370,2,29,-901,422,-24,-30,-58,149,-754,-402,76
5371,2,29,-877,442,-46,-21,-72,128,-717,-469,28
5372,2,29,-881,455,-17,-25,-50,114,-672,-540,7
5373,2,29,-850,483,-33,-18,-62,114,-613,-597,-10
5375,2,29,-849,509,-26,1,-61,129,-475,-706,-73
5376,2,29,-836,522,-12,-7,-50,126,-378,-741,-88
5377,2,29,-820,531,-19,-11,-53,140,-246,-769,-99
5378,2,29,-843,522,-20,-14,-36,134,-118,-762,-124
5380,2,29,-813,519,-25,-14,-70,135,109,-667,-115
5381,2,29,-836,543,-4,-10,-65,109,178,-583,-94
5382,2,29,-828,524,-14,-10,-52,105,229,-496,-81
5383,2,29,-822,536,-5,2,-58,83,256,-418,-51
5384,2,29,-803,564,13,5,-41,58,273,-361,-33
5386,2,29,-824,565,5,9,-14,21,282,-273,-15
5387,2,29,-809,542,-8,7,-8,11,307,-261,-9
5388,2,29,-825,552,-5,11,-31,-8,315,-271,-24
5389,2,29,-794,580,-12,21,-63,-12,325,-304,-27
5391,2,29,-785,599,-5,7,-67,-12,336,-369,-54
5392,2,29,-795,591,-12,2,-32,-10,348,-396,-51
5393,2,29,-815,569,-12,9,-48,-9,349,-424,-61
5394,2,29,-814,542,10,0,-34,-28,340,-450,-72
5395,2,29,-829,524,10,-18,-4,-46,328,-492,-82
5397,2,29,-838,501,-7,-17,-11,-59,244,-679,-115
5398,2,29,-785,557,8,-16,-31,-47,141,-795,-121
5399,2,29,-789,608,0,5,-32,-35,10,-900,-127
5400,2,29,-808,617,-11,21,-16,-45,-120,-957,-120
5402,2,29,-796,578,-12,17,6,-84,-292,-948,-72
5403,2,29,-812,533,-9,21,14,-66,-357,-924,-64
5404,2,29,-834,518,-3,9,23,-69,-390,-904,-45
5405,2,29,-853,498,-34,9,-6,-71,-447,-883,-34
5406,2,29,-861,506,-6,3,-37,-87,-510,-837,-18
5408,2,29,-860,487,-14,-18,-48,-133,-648,-697,49
5409,2,29,-874,462,-12,-13,-60,-169,-720,-574,96
5410,2,29,-889,451,-2,-17,-53,-217,-766,-459,139
5411,2,29,-873,410,-7,-2,-74,-229,-774,-333,174
5412,2,29,-875,399,8,-9,-14,-270,-783,-226,205
5414,2,29,-906,386,-4,6,-34,-317,-763,-22,268
5415,2,29,-856,435,1,-6,-53,-310,-730,49,282
5416,2,29,-891,432,-24,-16,-42,-259,-711,103,298
5417,2,29,-931,434,-19,-28,-67,-178,-681,127,288
5419,2,29,-939,306,7,0,-127,-142,-661,171,292
5420,2,29,-923,274,17,8,-142,-165,-634,184,289
5421,2,29,-951,255,47,2,-124,-187,-607,196,297
5422,2,29,-945,268,44,0,-88,-211,-592,211,298
5423,2,29,-957,241,50,11,-84,-213,-579,223,300
5425,2,29,-958,240,67,36,-28,-216,-547,244,303
5426,2,29,-974,209,55,41,52,-216,-546,259,313
5427,2,29,-959,183,55,39,92,-213,-540,267,307
5428,2,29,-972,167,39,25,103,-215,-511,270,318
5430,2,29,-974,123,-26,12,124,-223,-489,286,330
5431,2,29,-978,89,-14,15,104,-234,-480,301,333
5432,2,29,-987,95,-32,0,102,-245,-475,307,340
5433,2,29,-982,71,-50,-6,67,-240,-463,303,343
5434,2,29,-996,47,-37,6,72,-250,-447,321,349
5436,2,29,-985,6,-76,6,42,-258,-415,330,352
5437,2,29,-1041,-4,-49,4,-9,-234,-403,330,348
5438,2,29,-993,-31,-59,51,-64,-187,-400,334,358
5439,2,29,-990,-50,-48,60,-68,-156,-387,334,360
5441,2,29,-987,-54,-43,-11,161,-53,-381,342,357
5442,2,29,-992,-76,-121,-29,127,-26,-378,340,379
5443,2,29,-985,-84,-87,-20,67,-32,-376,348,373
5444,2,29,-985,-81,-98,-17,50,-30,-375,346,375
5445,2,29,-1002,-88,-115,-20,46,-12,-379,334,379
5446,2,29,-978,-83,-118,-11,4,-2,-379,346,382
5478,2,30,-973,-92,-167,-5,-21,0,-373,349,406
5479,2,30,-977,-92,-169,-6,-20,0,-369,351,408
5481,2,30,-974,-92,-170,-6,-21,0,-364,345,414
5482,2,30,-973,-92,-171,-5,-23,-1,-376,348,412
5484,2,30,-973,-92,-171,-5,-21,0,-369,348,403
5485,2,30,-972,-89,-171,-4,-23,2,-378,352,399
5487,2,30,-973,-93,-170,-6,-24,0,-375,345,411
5489,2,30,-974,-92,-172,-5,-21,0,-372,351,408
5490,2,30,-973,-91,-172,-5,-23,0,-369,346,409
5492,2,30,-974,-93,-174,-6,-20,0,-370,343,405
5493,2,30,-973,-91,-173,-4,-23,2,-375,345,411
5495,2,30,-973,-92,-175,-5,-22,0,-372,345,411
5496,2,30,-973,-92,-175,-4,-23,0,-370,352,411
5498,2,30,-973,-92,-175,-4,-23,0,-378,340,412
5499,2,30,-973,-93,-174,-4,-24,0,-373,348,409
5501,2,30,-971,-93,-175,-5,-25,0,-373,345,411
5502,2,30,-973,-91,-174,-5,-23,0,-361,348,414
5504,2,30,-973,-93,-175,-4,-22,0,-367,351,414
5506,2,30,-972,-92,-177,-4,-22,0,-370,342,411
5507,2,30,-973,-92,-177,-4,-24,0,-369,343,408
5509,2,30,-971,-93,-176,-4,-23,0,-369,342,412
5510,2,30,-973,-91,-177,-4,-20,0,-373,346,414
5512,2,30,-973,-92,-177,-5,-21,0,-369,349,412
5513,2,30,-974,-93,-179,-5,-21,0,-372,342,409
5515,2,30,-973,-93,-179,-4,-23,0,-372,351,411
5516,2,30,-973,-92,-179,-4,-23,0,-366,348,420
5518,2,30,-973,-92,-181,-5,-24,0,-372,348,408
5519,2,30,-972,-94,-180,-4,-28,0,-366,345,421
5521,2,30,-975,-91,-184,-2,-32,0,-370,343,420
5522,2,30,-993,-91,-216,2,-67,5,-367,337,421
5524,2,30,-957,-91,-149,11,-110,23,-378,345,400
5526,2,30,-979,-86,-152,7,-119,40,-382,337,406
5527,2,30,-978,-72,-122,3,-110,62,-379,346,397
5529,2,30,-983,-56,-136,-16,-23,86,-379,345,390
5530,2,30,-1002,-37,-176,-14,-43,112,-390,346,394
5532,2,30,-995,-18,-130,-9,-46,187,-409,333,385
5533,2,30,-974,-5,-119,-8,-76,206,-411,331,384
5535,2,30,-982,29,-135,-18,-72,179,-421,316,384
5536,2,30,-972,38,-95,-19,-56,161,-433,324,375
5538,2,30,-1006,91,-114,-21,-42,191,-459,315,384
5539,2,30,-987,111,-96,-32,-45,227,-469,309,382
5541,2,30,-968,144,-107,-58,-77,242,-490,295,366
5543,2,30,-965,181,-88,-48,-33,224,-528,273,352
5544,2,30,-959,200,-94,-42,-61,232,-538,273,351
5546,2,30,-950,242,-87,-42,-20,238,-585,237,342
5547,2,30,-940,249,-69,-47,-21,240,-598,234,337
5549,2,30,-956,287,-95,-42,-11,237,-657,196,316
5550,2,30,-936,319,-85,-40,-36,228,-675,168,306
5552,2,30,-945,354,-91,-32,-61,232,-727,97,280
5553,2,30,-896,358,-68,-18,-84,240,-751,49,255
5555,2,30,-882,428,-75,-18,-69,231,-789,-82,208
5556,2,30,-904,457,-75,-29,-39,239,-799,-163,156
5558,2,30,-889,452,-68,-22,-46,259,-744,-420,25
5559,2,30,-864,458,-66,-5,-90,247,-670,-537,-48
5561,2,30,-861,495,-38,-4,-72,225,-340,-685,-189
5563,2,30,-858,490,-37,13,-74,167,-19,-598,-223
5564,2,30,-855,524,-32,-2,-63,117,64,-511,-205
5566,2,30,-834,559,-48,-67,-81,121,163,-319,-148
5567,2,30,-833,499,-29,-70,-123,110,163,-231,-114
5569,2,30,-833,515,30,-92,-65,-4,142,-175,-72
5570,2,30,-790,571,-4,-72,-119,-14,130,-205,-91
5572,2,30,-792,592,44,-29,-29,-12,123,-253,-126
5573,2,30,-786,577,29,0,-45,-14,121,-286,-136
5575,2,30,-813,554,16,21,-16,-32,115,-333,-154
5576,2,30,-819,553,12,29,-16,-33,111,-385,-169
5578,2,30,-789,598,10,15,-63,-13,51,-475,-201
5580,2,30,-803,595,17,-7,-40,0,-15,-529,-222
5581,2,30,-808,574,25,-18,-45,0,-24,-538,-223
5583,2,30,-810,551,25,-15,-57,-18,-49,-558,-219
5584,2,30,-845,531,26,-9,-40,-36,-76,-556,-217
5586,2,30,-831,516,52,4,-3,-104,-189,-580,-193
5587,2,30,-801,541,43,0,-14,-108,-270,-598,-186
5589,2,30,-853,558,16,-7,11,-91,-388,-610,-151
5590,2,30,-825,519,16,-2,0,-95,-448,-610,-139
5592,2,30,-876,476,13,0,-50,-96,-549,-571,-82
5593,2,30,-883,458,26,-11,-59,-132,-603,-513,-39
5595,2,30,-878,421,32,-28,-63,-214,-714,-354,63
5596,2,30,-887,428,36,-33,-51,-251,-747,-246,115
5598,2,30,-890,420,13,-11,-55,-294,-750,-60,190
5600,2,30,-894,402,42,18,-34,-292,-714,70,253
5601,2,30,-888,416,28,-3,-34,-287,-684,117,258
5603,2,30,-911,355,25,7,-79,-234,-637,163,277
5604,2,30,-946,312,54,15,-63,-224,-618,187,279
5606,2,30,-948,287,66,16,-39,-168,-588,214,292
5607,2,30,-955,242,57,25,-35,-161,-576,237,292
5609,2,30,-948,177,57,43,-23,-235,-549,247,300
5610,2,30,-950,167,47,46,0,-275,-535,261,301
5612,2,30,-987,160,50,19,18,-327,-499,276,313
5613,2,30,-980,135,32,15,30,-297,-489,291,312
5615,2,30,-991,102,42,-5,46,-231,-456,309,316
5617,2,30,-1012,45,-6,-14,51,-189,-435,318,330
5618,2,30,-999,14,-7,1,1,-172,-427,319,330
5620,2,30,-1029,-18,10,23,-115,-183,-403,330,340
5621,2,30,-998,-11,0,51,-152,-182,-403,330,321
5623,2,30,-985,-41,92,50,-64,-58,-381,333,325
5624,2,30,-983,-50,62,5,35,-2,-399,334,321
5625,2,30,-971,-57,37,-9,83,-15,-402,337,318
5681,2,31,-976,-92,-158,-6,-23,0,-369,339,402
5682,2,31,-975,-92,-159,-5,-19,0,-378,349,402
5683,2,31,-976,-91,-160,-4,-21,0,-367,352,396
5685,2,31,-976,-90,-160,-5,-21,0,-366,355,408
5686,2,31,-974,-91,-161,-5,-21,0,-373,349,403
5687,2,31,-974,-91,-161,-5,-23,0,-378,346,405
5688,2,31,-975,-91,-162,-5,-22,0,-378,349,403
5690,2,31,-975,-89,-163,-5,-21,0,-367,351,402
5691,2,31,-974,-91,-163,-5,-21,0,-384,346,406
5692,2,31,-975,-91,-162,-4,-23,0,-381,346,396
5694,2,31,-976,-91,-163,-6,-21,0,-378,348,406
5695,2,31,-976,-89,-164,-5,-25,0,-381,346,406
5696,2,31,-974,-91,-163,-5,-25,0,-367,346,403
5697,2,31,-975,-92,-164,-5,-23,0,-379,352,405
5699,2,31,-974,-91,-164,-4,-25,0,-369,352,403
5700,2,31,-974,-91,-163,-4,-23,0,-373,351,408
5701,2,31,-975,-91,-165,-4,-25,0,-372,349,411
5703,2,31,-974,-92,-164,-5,-20,0,-387,348,406
5704,2,31,-975,-91,-166,-5,-21,0,-372,352,402
5705,2,31,-976,-93,-165,-5,-23,0,-367,348,399
5706,2,31,-974,-92,-164,-5,-21,0,-376,352,406
5708,2,31,-993,-91,-183,2,-95,19,-369,345,397
5709,2,31,-977,-81,-151,-3,-93,35,-370,351,394
5710,2,31,-971,-74,-143,-5,-112,72,-378,339,402
5712,2,31,-983,-54,-116,-21,-28,143,-385,340,384
5713,2,31,-988,-19,-146,-23,14,191,-390,343,391
5714,2,31,-1036,-22,-155,-7,-99,279,-412,330,393
5716,2,31,-991,65,-131,-33,-63,283,-430,316,391
5717,2,31,-997,77,-136,-29,-84,315,-435,321,390
5718,2,31,-987,103,-109,-42,-51,316,-457,313,375
5719,2,31,-981,116,-114,-58,-86,318,-480,306,378
5721,2,31,-960,193,-111,-60,-97,305,-517,289,366
5722,2,31,-968,234,-93,-70,-67,335,-549,273,369
5723,2,31,-941,245,-106,-70,-56,360,-574,252,348
5725,2,31,-903,263,-91,-84,0,368,-642,198,336
5726,2,31,-944,275,-83,-67,10,305,-687,168,318
5727,2,31,-932,267,-104,-68,-35,275,-715,127,310
5728,2,31,-926,285,-88,-39,-57,226,-747,72,288
5730,2,31,-920,354,-77,-44,-104,166,-781,-9,246
5731,2,31,-912,391,-90,-41,-121,158,-798,-55,229
5732,2,31,-904,421,-73,-39,-131,168,-804,-114,204
5734,2,31,-853,462,-34,-53,-125,205,-802,-238,142
5735,2,31,-882,459,-19,-58,-74,214,-766,-331,100
5736,2,31,-873,495,-22,-67,-99,205,-723,-427,52
5737,2,31,-834,499,-16,-63,-107,224,-627,-525,3
5739,2,31,-813,522,1,-47,-137,237,-340,-667,-96
5740,2,31,-839,517,-6,-38,-122,233,-156,-652,-112
5741,2,31,-810,533,12,-37,-132,228,-1,-579,-106
5743,2,31,-822,532,31,-14,-75,151,147,-322,-54
5744,2,31,-789,554,52,-8,-73,137,151,-202,-3
5745,2,31,-810,559,45,5,-49,111,150,-109,19
5747,2,31,-789,563,11,14,-44,86,103,21,75
5748,2,31,-803,563,58,27,-20,62,79,70,78
5749,2,31,-786,576,47,33,-39,23,69,91,99
5750,2,31,-805,546,31,16,14,-9,75,90,100
5752,2,31,-785,593,33,32,-19,-39,135,45,67
5753,2,31,-782,599,2,31,-18,-39,181,13,43
5754,2,31,-747,666,31,31,-49,-19,208,-55,12
5756,2,31,-770,641,4,-1,7,-3,238,-91,-10
5757,2,31,-790,599,3,0,-19,5,228,-72,6
5758,2,31,-806,566,4,4,-72,4,211,-63,9
5759,2,31,-802,554,32,-11,-112,-8,205,-73,-7
5761,2,31,-821,570,22,-42,-118,-25,204,-162,-43
5762,2,31,-818,522,47,-4,-37,-106,192,-241,-54
5763,2,31,-826,528,60,5,-26,-163,150,-330,-108
5765,2,31,-800,562,41,0,-28,-170,-13,-568,-136
5766,2,31,-806,597,36,0,-18,-143,-127,-646,-136
5767,2,31,-816,563,41,0,5,-165,-282,-673,-108
5768,2,31,-834,517,30,5,45,-196,-394,-652,-81
5770,2,31,-851,481,5,30,4,-207,-610,-532,9
5771,2,31,-882,468,27,40,7,-205,-693,-445,57
5772,2,31,-868,471,16,49,2,-219,-745,-336,115
5774,2,31,-890,373,-6,25,70,-294,-775,-145,193
5775,2,31,-904,348,-8,23,74,-325,-765,-46,225
5776,2,31,-911,368,-23,30,74,-366,-733,39,262
5778,2,31,-906,314,-38,56,114,-421,-666,162,304
5779,2,31,-907,346,-55,37,105,-394,-631,195,331
5780,2,31,-959,357,-68,24,103,-371,-609,232,334
5781,2,31,-990,301,-100,25,79,-288,-576,250,340
5783,2,31,-986,185,-96,27,-59,-200,-541,270,357
5784,2,31,-979,139,-90,26,-114,-207,-531,285,349
5785,2,31,-967,134,-74,27,-156,-231,-519,288,351
5787,2,31,-983,117,-42,16,-133,-221,-481,301,342
5788,2,31,-966,108,-8,28,-74,-224,-474,310,340
5789,2,31,-966,82,-3,7,57,-230,-450,312,349
5790,2,31,-968,59,-34,-4,170,-254,-447,322,355
5792,2,31,-993,16,-111,-35,270,-276,-426,333,370
5793,2,31,-1002,-23,-131,-19,217,-279,-399,330,382
5794,2,31,-1026,-8,-162,4,98,-231,-397,349,387
5796,2,31,-997,-72,-161,46,-133,-79,-378,342,385
5797,2,31,-986,-77,-105,37,-130,-10,-381,349,393
5798,2,31,-951,-65,-86,21,-11,-15,-376,345,387
5799,2,31,-959,-68,-89,4,86,-41,-384,349,396
5801,2,31,-992,-92,-177,-18,66,-11,-372,348,403
5802,2,31,-982,-90,-175,-5,-6,-3,-370,342,408
5803,2,31,-973,-82,-150,-1,-21,-4,-378,348,397
5804,2,31,-971,-83,-149,-6,9,-6,-370,346,399
5866,2,32,-969,-92,-196,-4,-23,0,-379,348,415
5867,2,32,-968,-91,-195,-5,-21,0,-364,360,415
5868,2,32,-969,-90,-194,-6,-17,-2,-375,345,417
5869,2,32,-970,-92,-198,-7,-16,-1,-372,348,427
5870,2,32,-969,-94,-199,-4,-18,0,-373,351,421
5872,2,32,-968,-90,-198,-4,-25,0,-378,346,418
5873,2,32,-968,-92,-199,-5,-25,0,-355,346,411
5874,2,32,-968,-91,-198,-4,-24,0,-367,351,412
5875,2,32,-968,-91,-200,-3,-26,0,-373,349,423
5876,2,32,-968,-91,-200,-4,-28,0,-379,346,418
5878,2,32,-969,-91,-201,-4,-25,0,-370,343,420
5879,2,32,-970,-91,-199,-4,-35,0,-363,345,414
5880,2,32,-967,-90,-195,-5,-22,0,-376,346,414
5881,2,32,-971,-92,-201,-3,-27,0,-369,345,423
5883,2,32,-972,-88,-203,-1,-56,6,-372,348,415
5884,2,32,-982,-87,-212,-3,-65,14,-375,346,418
5885,2,32,-994,-93,-218,1,-112,30,-367,343,417
5886,2,32,-966,-88,-169,8,-142,48,-370,348,415
5887,2,32,-973,-73,-148,-5,-91,58,-378,345,408
5889,2,32,-988,-50,-161,-26,-32,133,-378,343,405
5890,2,32,-983,-14,-162,-36,-3,204,-394,342,402
5891,2,32,-1011,2,-171,-30,-24,278,-396,328,405
5892,2,32,-1000,47,-182,-35,-60,326,-415,330,397
5893,2,32,-979,95,-162,-30,-70,358,-436,324,400
5895,2,32,-968,119,-135,-58,-83,372,-472,300,385
5896,2,32,-972,144,-154,-70,-75,350,-502,300,387
5897,2,32,-940,203,-148,-57,-110,333,-523,288,372
5898,2,32,-960,199,-145,-63,-95,350,-547,277,370
5899,2,32,-934,231,-117,-65,-88,337,-582,252,367
5901,2,32,-941,272,-119,-97,-55,352,-636,210,343
5902,2,32,-946,293,-98,-89,-42,322,-669,172,313
5903,2,32,-926,308,-114,-93,-63,303,-712,127,292
5904,2,32,-913,332,-102,-65,-119,272,-736,84,268
5905,2,32,-907,366,-107,-58,-132,257,-762,19,246
5907,2,32,-872,391,-68,-41,-112,245,-786,-123,163
5908,2,32,-872,434,-68,-42,-107,222,-786,-205,106
5909,2,32,-890,445,-51,-43,-74,212,-769,-300,52
5910,2,32,-884,449,-55,-38,-84,206,-724,-393,7
5912,2,32,-879,471,-45,-21,-84,175,-564,-541,-100
5913,2,32,-860,500,-39,-27,-98,155,-456,-606,-142
5914,2,32,-841,501,-27,-28,-69,153,-352,-622,-165
5915,2,32,-835,544,-27,-39,-81,143,-240,-612,-196
5916,2,32,-821,520,-34,-49,-114,153,-130,-583,-187
5918,2,32,-818,535,0,-47,-107,129,13,-445,-169
5919,2,32,-815,543,8,-37,-95,119,46,-369,-138
5920,2,32,-826,551,30,-19,-63,87,66,-301,-115
5921,2,32,-788,572,20,-15,-64,81,79,-244,-96
5922,2,32,-800,556,16,-7,-35,75,85,-189,-73
5924,2,32,-802,564,27,24,-27,9,105,-142,-64
5925,2,32,-805,550,22,21,12,-11,108,-136,-69
5926,2,32,-803,562,-3,22,-29,-18,127,-160,-79
5927,2,32,-816,562,22,28,-39,-36,144,-201,-103
5928,2,32,-785,592,5,14,-44,-47,160,-264,-129
5930,2,32,-774,633,9,0,-19,-12,163,-361,-168
5931,2,32,-790,605,3,0,-5,-7,165,-379,-169
5932,2,32,-799,578,3,4,-5,-6,154,-375,-181
5933,2,32,-808,562,3,6,-8,-10,154,-382,-186
5934,2,32,-812,555,-1,7,-28,-14,156,-390,-186
5936,2,32,-813,569,10,-4,-46,-30,117,-457,-205
5937,2,32,-797,608,13,-20,-101,-4,93,-493,-217
5938,2,32,-807,584,12,-18,-24,-37,61,-522,-223
5939,2,32,-823,557,-4,-18,-7,-37,42,-538,-214
5941,2,32,-838,522,24,0,-28,-77,-46,-576,-214
5942,2,32,-824,519,22,-3,-31,-91,-112,-612,-219
5943,2,32,-843,542,0,-7,-54,-102,-210,-648,-204
5944,2,32,-818,555,21,-1,-40,-107,-297,-648,-184
5945,2,32,-793,567,26,0,-21,-92,-385,-637,-163
5947,2,32,-850,508,8,8,1,-81,-492,-616,-123
5948,2,32,-853,494,9,7,-7,-104,-546,-597,-94
5949,2,32,-874,453,15,4,14,-129,-603,-561,-66
5950,2,32,-881,429,-4,5,-6,-162,-664,-504,-18
5951,2,32,-867,451,-1,11,-59,-182,-720,-421,34
5953,2,32,-899,423,2,2,-22,-254,-766,-222,138
5954,2,32,-883,403,-6,0,-23,-270,-772,-117,180
5955,2,32,-894,408,3,5,-18,-294,-760,-33,214
5956,2,32,-888,411,1,4,-9,-282,-736,34,247
5957,2,32,-917,401,-11,11,-6,-278,-711,87,264
5959,2,32,-937,327,-5,32,19,-235,-664,156,288
5960,2,32,-932,300,-5,32,32,-246,-648,174,298
5961,2,32,-938,288,-5,28,63,-253,-628,198,306
5962,2,32,-943,289,-21,20,62,-243,-603,219,318
5963,2,32,-959,270,-36,11,63,-216,-585,243,327
5965,2,32,-971,217,-57,19,18,-173,-568,264,328
5966,2,32,-971,205,-65,25,-41,-165,-541,262,333
5967,2,32,-981,186,-46,21,-67,-158,-543,276,330
5968,2,32,-974,167,-42,17,-71,-142,-534,268,336
5970,2,32,-973,145,-25,15,-69,-150,-507,289,342
5971,2,32,-979,124,-24,20,-57,-165,-498,283,342
5972,2,32,-964,121,-19,15,-28,-175,-492,289,339
5973,2,32,-981,112,-26,7,-9,-170,-466,309,337
5974,2,32,-984,105,-31,9,-21,-158,-471,303,345
5976,2,32,-981,71,-21,4,9,-135,-451,309,339
5977,2,32,-995,50,-39,4,9,-130,-442,318,339
5978,2,32,-982,42,-40,4,2,-129,-436,309,345
5979,2,32,-980,32,-37,-3,23,-145,-436,318,348
5980,2,32,-1003,11,-51,0,-16,-149,-432,327,352
5981,2,32,-974,0,-46,-2,-24,-152,-421,331,346
6025,2,33,-972,-92,-179,-7,-17,-1,-373,346,411
6027,2,33,-973,-90,-180,-6,-21,0,-366,351,409
6029,2,33,-972,-91,-180,-5,-20,0,-373,349,411
6030,2,33,-971,-91,-181,-5,-19,-1,-367,351,414
6032,2,33,-973,-93,-184,-5,-20,0,-372,355,409
6034,2,33,-971,-92,-182,-5,-21,0,-375,346,414
6036,2,33,-970,-91,-182,-4,-21,-1,-379,346,408
6038,2,33,-971,-91,-183,-6,-21,-1,-366,352,414
6039,2,33,-970,-93,-185,-5,-18,-1,-369,346,411
6041,2,33,-972,-91,-188,-6,-14,-1,-372,352,408
6043,2,33,-970,-91,-190,-5,-17,-1,-370,351,414
6045,2,33,-971,-92,-191,-5,-21,0,-363,348,415
6047,2,33,-970,-92,-191,-6,-23,0,-370,355,421
6048,2,33,-969,-92,-190,-4,-23,0,-378,349,412
6050,2,33,-969,-93,-190,-4,-24,0,-373,352,418
6052,2,33,-970,-91,-192,-4,-25,0,-367,346,418
6054,2,33,-969,-90,-193,-5,-25,0,-363,354,414
6056,2,33,-969,-93,-192,-4,-23,0,-370,348,423
6058,2,33,-969,-91,-193,-4,-24,0,-370,342,415
6059,2,33,-969,-91,-192,-5,-25,0,-376,354,414
6061,2,33,-969,-92,-191,-4,-25,0,-364,346,420
6063,2,33,-970,-90,-192,-4,-26,0,-376,351,420
6065,2,33,-970,-91,-193,-4,-25,0,-369,343,421
6067,2,33,-971,-91,-194,-4,-25,0,-379,355,412
6068,2,33,-975,-90,-196,-4,-37,1,-366,354,414
6070,2,33,-976,-88,-204,0,-61,7,-363,348,420
6072,2,33,-966,-96,-148,14,-161,47,-378,352,414
6074,2,33,-993,-75,-164,-4,-81,59,-384,346,406
6076,2,33,-974,-51,-127,-12,-84,126,-378,346,387
6077,2,33,-977,-28,-141,-16,-10,158,-393,342,396
6079,2,33,-984,-10,-151,-10,-49,198,-411,330,393
6081,2,33,-979,21,-129,-18,-35,173,-430,325,391
6083,2,33,-981,61,-142,-21,11,171,-445,319,388
6085,2,33,-976,68,-143,-32,11,160,-471,304,384
6087,2,33,-968,86,-166,-32,-31,135,-492,303,391
6088,2,33,-977,98,-164,-29,-34,116,-487,297,393
6090,2,33,-967,115,-141,-35,-72,107,-493,294,385
6092,2,33,-964,147,-151,-24,-74,97,-513,286,372
6094,2,33,-975,194,-129,-29,-42,118,-529,283,376
6096,2,33,-969,226,-144,-46,-49,183,-559,268,375
6097,2,33,-963,238,-135,-49,-63,219,-574,267,363
6099,2,33,-931,241,-107,-42,-59,228,-609,240,358
6101,2,33,-949,256,-113,-36,-38,178,-649,207,351
6103,2,33,-923,313,-113,-22,-86,147,-688,166,325
6105,2,33,-918,355,-79,-18,-73,147,-726,129,301
6106,2,33,-914,353,-98,-24,-56,147,-736,100,294
6108,2,33,-913,383,-81,-21,-72,154,-774,39,255
6110,2,33,-914,412,-82,-37,-65,163,-808,-51,220
6112,2,33,-917,410,-70,-32,-76,176,-813,-196,160
6114,2,33,-866,453,-62,-23,-85,165,-790,-345,79
6116,2,33,-838,469,-47,-25,-91,162,-709,-508,-12
6117,2,33,-888,450,-43,-16,-74,147,-639,-588,-60
6119,2,33,-842,482,-23,-7,-73,118,-487,-684,-121
6121,2,33,-833,541,-41,-24,-68,108,-313,-733,-168
6123,2,33,-822,531,-22,-23,-85,117,-114,-696,-192
6125,2,33,-842,538,0,-11,-53,113,52,-579,-186
6126,2,33,-807,557,11,4,-67,99,127,-490,-162
6128,2,33,-797,566,11,7,-22,84,196,-339,-130
6130,2,33,-823,536,-11,18,20,49,223,-204,-73
6132,2,33,-793,575,-21,23,-9,15,250,-162,-69
6134,2,33,-794,575,-20,14,-42,-4,276,-169,-75
6135,2,33,-796,573,-21,2,-29,-11,286,-175,-73
6137,2,33,-801,570,-12,0,-35,-31,309,-241,-108
6139,2,33,-799,586,-9,-17,8,-41,331,-363,-153
6141,2,33,-827,547,-42,6,31,-51,327,-498,-180
6143,2,33,-824,530,-45,19,-17,-40,240,-694,-229
6145,2,33,-796,555,-34,6,0,-47,21,-871,-249
6146,2,33,-835,581,-57,-13,25,-83,-108,-939,-256
6148,2,33,-809,580,-57,-20,-44,-97,-364,-922,-190
6150,2,33,-806,565,-17,-19,-59,-46,-504,-838,-138
6152,2,33,-846,527,-29,-14,-40,-48,-556,-783,-108
6154,2,33,-849,505,-24,-4,-28,-63,-618,-724,-69
6155,2,33,-860,498,-27,0,-38,-72,-651,-685,-52
6157,2,33,-870,462,-15,-9,-32,-140,-726,-567,21
6159,2,33,-889,417,-28,-22,-11,-180,-793,-394,106
6161,2,33,-886,426,-33,-2,-67,-217,-816,-201,187
6163,2,33,-869,454,-14,2,-34,-226,-786,-31,237
6164,2,33,-889,435,-13,-5,-1,-192,-759,7,261
6166,2,33,-931,359,-32,9,-20,-156,-721,85,276
6168,2,33,-931,308,-27,6,-78,-204,-690,136,297
6170,2,33,-909,315,-2,-2,-61,-235,-645,195,306
6172,2,33,-940,330,6,4,-50,-153,-613,226,309
6174,2,33,-947,262,-1,18,-11,-100,-585,232,319
6175,2,33,-957,234,0,21,-4,-94,-573,240,327
6177,2,33,-966,202,-24,21,-2,-143,-562,253,328
6179,2,33,-979,181,-17,14,-15,-179,-541,261,331
6181,2,33,-978,172,-11,21,-7,-217,-520,271,336
6183,2,33,-979,163,-18,7,3,-182,-499,294,339
6184,2,33,-986,130,-27,11,11,-130,-484,294,349
6186,2,33,-981,91,-27,7,-7,-102,-475,309,343
6188,2,33,-998,60,-40,2,11,-130,-460,310,345
6190,2,33,-982,48,-40,3,2,-143,-453,315,355
6192,2,33,-995,23,-53,2,-20,-142,-427,321,354
6193,2,33,-983,5,-35,1,-9,-144,-421,325,360
6195,2,33,-998,-26,-56,7,-38,-219,-414,331,361
6197,2,33,-967,-37,-6,65,-31,-223,-393,349,348
6198,2,33,-1082,-62,-7,-6,83,-17,-384,336,357
6259,2,34,-976,-88,-161,-5,-23,0,-379,351,408
6260,2,34,-976,-90,-163,-5,-23,0,-378,351,405
6261,2,34,-974,-91,-161,-5,-23,0,-375,352,402
6262,2,34,-975,-89,-163,-4,-23,0,-372,346,406
6264,2,34,-978,-90,-167,-3,-32,1,-370,346,402
6265,2,34,-971,-90,-154,-3,-31,0,-379,345,403
6266,2,34,-976,-89,-164,-3,-23,-1,-375,352,399
6267,2,34,-977,-90,-162,-3,-32,1,-367,345,403
6269,2,34,-987,-87,-184,2,-87,12,-376,342,406
6270,2,34,-976,-86,-151,9,-108,21,-378,352,390
6271,2,34,-997,-78,-167,14,-165,53,-376,346,393
6272,2,34,-968,-84,-110,20,-173,70,-378,348,391
6274,2,34,-969,-50,-94,-2,-75,124,-387,336,382
6275,2,34,-979,-19,-99,-20,0,178,-402,342,379
6276,2,34,-987,3,-119,-18,20,228,-399,336,379
6278,2,34,-1011,63,-123,-50,-31,342,-438,327,378
6279,2,34,-987,110,-138,-49,-83,374,-444,321,373
6280,2,34,-959,117,-95,-60,-37,359,-465,315,384
6281,2,34,-981,104,-101,-81,-11,327,-489,301,369
6283,2,34,-973,127,-120,-79,-52,240,-528,279,372
6284,2,34,-956,184,-104,-57,-40,201,-526,282,363
6285,2,34,-963,228,-113,-49,-60,207,-549,270,357
6286,2,34,-951,245,-106,-47,-68,228,-568,256,351
6288,2,34,-929,257,-94,-60,5,231,-613,231,348
6289,2,34,-936,262,-85,-64,34,212,-631,214,340
6290,2,34,-941,262,-120,-53,20,192,-654,190,321
6291,2,34,-932,300,-127,-35,-40,177,-669,174,312
6293,2,34,-920,332,-97,-34,-53,163,-711,129,289
6294,2,34,-927,348,-107,-30,-47,154,-729,114,279
6295,2,34,-909,358,-94,-35,-50,154,-751,84,259
6296,2,34,-901,356,-83,-29,-32,146,-769,52,235
6298,2,34,-915,403,-93,-30,-48,146,-792,-24,187
6299,2,34,-892,430,-90,-11,-84,149,-805,-85,153
6300,2,34,-889,431,-78,-22,-71,160,-805,-144,121
6301,2,34,-879,433,-71,-18,-68,155,-804,-195,70
6303,2,34,-885,454,-75,-48,-70,166,-756,-331,-18
6304,2,34,-866,451,-74,-26,-95,166,-720,-388,-61
6305,2,34,-860,464,-59,-23,-119,156,-654,-445,-115
6307,2,34,-850,472,-28,-17,-52,109,-505,-519,-189
6308,2,34,-838,496,-35,-1,-46,88,-451,-534,-213
6309,2,34,-844,527,-28,-7,-6,86,-378,-547,-241
6310,2,34,-838,552,-39,-8,4,98,-300,-561,-268
6312,2,34,-846,527,-50,5,0,112,-105,-538,-307
6313,2,34,-806,542,-72,12,-47,111,-16,-495,-300
6314,2,34,-850,518,-38,0,-15,109,60,-436,-288
6315,2,34,-825,536,-65,7,-67,91,102,-366,-256
6317,2,34,-852,486,-28,18,-79,34,136,-282,-225
6318,2,34,-804,523,-24,22,-81,-21,141,-306,-235
6319,2,34,-809,567,-36,9,-58,-28,139,-355,-256
6320,2,34,-790,592,-68,25,-55,-18,142,-402,-277
6322,2,34,-802,570,-42,17,-7,-14,117,-460,-300
6323,2,34,-831,539,-49,7,-25,-14,115,-478,-309
6324,2,34,-829,534,-70,8,-65,-19,91,-516,-319
6325,2,34,-824,542,-40,0,-79,-21,54,-543,-318
6327,2,34,-840,543,-29,-33,-65,-30,-58,-609,-321
6328,2,34,-815,557,-25,-32,-60,-35,-129,-640,-309
6329,2,34,-808,565,-30,-19,-68,-38,-196,-663,-303
6330,2,34,-836,546,-12,1,-58,-65,-261,-673,-289
6332,2,34,-825,521,-14,0,-45,-89,-397,-655,-226
6333,2,34,-841,517,-28,10,-51,-94,-478,-639,-213
6334,2,34,-826,540,-17,18,-79,-81,-547,-603,-166
6336,2,34,-829,528,4,2,-20,-79,-648,-526,-108
6337,2,34,-831,521,-7,-11,0,-52,-679,-507,-72
6338,2,34,-864,502,-26,-3,-11,-51,-705,-492,-63
6339,2,34,-871,478,-21,17,-43,-57,-727,-462,-34
6341,2,34,-877,450,9,3,-14,-105,-768,-379,25
6342,2,34,-875,434,-19,1,-20,-146,-783,-331,55
6343,2,34,-886,442,-7,3,-22,-167,-805,-240,106
6344,2,34,-872,464,-3,-9,-9,-186,-799,-177,138
6346,2,34,-903,443,-30,-27,-5,-149,-790,-58,213
6347,2,34,-905,411,-24,-18,-56,-149,-777,-18,220
6348,2,34,-896,396,-17,-20,-75,-154,-750,19,232
6349,2,34,-904,392,-5,-25,-69,-161,-742,58,252
6351,2,34,-916,365,-1,-25,-30,-176,-706,114,273
6352,2,34,-917,354,-4,-16,-39,-165,-693,139,285
6353,2,34,-928,327,0,0,-21,-172,-672,154,285
6354,2,34,-930,311,-1,11,0,-195,-646,174,289
6356,2,34,-944,314,-10,16,51,-197,-619,214,307
6357,2,34,-945,294,-24,26,43,-177,-607,213,315
6358,2,34,-957,280,-34,23,31,-147,-598,223,324
6359,2,34,-968,259,-36,23,22,-127,-591,243,321
6361,2,34,-977,230,-42,14,-14,-119,-576,243,328
6362,2,34,-969,199,-39,17,-48,-125,-564,261,333
6363,2,34,-967,199,-30,20,-72,-144,-550,261,328
6365,2,34,-958,178,-27,22,-64,-173,-532,271,334
6366,2,34,-982,170,-11,21,-11,-181,-511,268,334
6367,2,34,-987,160,-27,18,8,-172,-501,283,325
6368,2,34,-965,133,-24,25,-11,-172,-499,289,336
6370,2,34,-976,96,-23,7,31,-205,-484,306,342
6371,2,34,-974,96,-59,0,40,-218,-466,303,346
6372,2,34,-986,82,-45,1,43,-226,-460,315,345
6373,2,34,-996,52,-43,0,27,-214,-450,319,351
6375,2,34,-994,7,-61,3,37,-244,-420,331,352
6376,2,34,-992,5,-65,11,55,-267,-408,334,360
6377,2,34,-1009,-1,-63,56,-49,-220,-402,339,370
6378,2,34,-984,-41,-63,47,-37,-142,-393,336,363
6379,2,34,-989,-53,-63,23,4,-80,-394,343,366
6423,2,35,-960,-97,-254,-25,83,-11,-370,345,433
6425,2,35,-957,-97,-268,-16,44,-7,-366,346,441
6426,2,35,-955,-96,-272,-14,30,-5,-360,343,447
6428,2,35,-950,-94,-276,-13,17,-4,-364,345,451
6430,2,35,-945,-96,-283,-11,20,-4,-363,349,450
6432,2,35,-942,-96,-290,-13,22,-4,-369,346,460
6433,2,35,-941,-96,-296,-12,21,-6,-364,345,460
6435,2,35,-941,-95,-305,-11,12,-4,-367,343,465
6437,2,35,-938,-94,-310,-11,8,-4,-360,345,456
6439,2,35,-938,-95,-316,-12,12,-4,-364,337,468
6440,2,35,-935,-97,-317,-13,13,-4,-363,343,474
6442,2,35,-931,-97,-325,-11,11,-2,-366,342,466
6444,2,35,-932,-95,-331,-11,5,-2,-376,345,475
6446,2,35,-930,-96,-337,-11,3,-2,-357,345,478
6447,2,35,-929,-98,-340,-9,2,-3,-354,346,477
6449,2,35,-926,-96,-343,-9,0,-2,-352,337,493
6451,2,35,-927,-99,-348,-9,-2,-2,-358,339,484
6453,2,35,-924,-96,-352,-9,-2,-2,-363,336,471
6454,2,35,-924,-97,-354,-9,-3,0,-367,348,477
6456,2,35,-923,-98,-355,-8,-8,-2,-364,336,483
6458,2,35,-922,-95,-362,-6,-16,0,-369,348,490
6460,2,35,-920,-96,-360,-5,-21,0,-363,345,480
6461,2,35,-921,-96,-361,-5,-20,0,-370,337,484
6463,2,35,-923,-97,-364,-4,-28,2,-367,336,492
6465,2,35,-932,-98,-373,-1,-78,7,-367,339,483
6467,2,35,-931,-97,-336,9,-136,17,-360,339,483
6468,2,35,-937,-98,-336,20,-158,19,-369,342,480
6470,2,35,-936,-97,-276,16,-160,23,-366,333,466
6472,2,35,-956,-91,-290,10,-116,17,-370,336,448
6474,2,35,-969,-82,-289,11,-221,48,-369,342,445
6475,2,35,-958,-83,-219,11,-261,65,-372,349,433
6477,2,35,-966,-76,-199,30,-359,105,-376,345,415
6479,2,35,-946,-47,-96,25,-203,67,-391,343,391
6481,2,35,-971,-28,-133,-22,114,57,-400,343,388
6482,2,35,-996,-31,-181,-26,143,100,-393,337,408
6484,2,35,-973,0,-187,-16,9,180,-411,337,402
6486,2,35,-998,50,-199,-37,37,228,-426,322,409
6488,2,35,-972,96,-201,-50,46,246,-459,316,415
6489,2,35,-967,95,-206,-56,38,254,-480,307,406
6491,2,35,-955,104,-209,-65,-10,212,-507,297,417
6493,2,35,-953,151,-213,-44,-61,147,-526,280,412
6495,2,35,-954,216,-199,-29,-77,154,-550,268,394
6496,2,35,-959,234,-192,-30,-47,170,-561,268,391
6498,2,35,-926,251,-181,-45,-44,192,-601,250,388
6500,2,35,-943,287,-185,-44,-51,211,-643,219,375
6502,2,35,-946,310,-187,-51,-41,206,-708,177,361
6503,2,35,-923,315,-187,-50,-73,195,-733,145,349
6505,2,35,-877,354,-188,-44,-151,191,-787,69,312
6507,2,35,-899,382,-142,-49,-165,172,-831,-24,265
6509,2,35,-913,399,-110,-41,-134,164,-862,-163,199
6510,2,35,-893,392,-96,-24,-112,155,-864,-232,165
6512,2,35,-871,450,-100,-26,-86,147,-840,-390,109
6514,2,35,-829,477,-95,-15,-107,158,-775,-573,15
6516,2,35,-876,465,-82,2,-83,131,-610,-757,-72
6517,2,35,-845,476,-65,-16,-88,123,-523,-817,-115
6519,2,35,-856,506,-66,-7,-56,93,-321,-882,-159
6521,2,35,-854,536,-66,9,-42,105,-102,-892,-199
6523,2,35,-822,542,-57,9,-30,127,180,-780,-214
6524,2,35,-822,547,-64,-7,-40,104,279,-696,-186
6526,2,35,-848,519,-59,-11,-45,77,382,-474,-112
6528,2,35,-839,507,-42,-15,-54,7,402,-391,-96
6530,2,35,-805,582,-45,-10,-66,-12,411,-456,-120
6531,2,35,-791,596,-37,-3,-60,-7,405,-484,-132
6533,2,35,-798,567,-44,-4,-28,-8,414,-507,-135
6535,2,35,-812,569,-53,-1,-65,-22,388,-555,-160
6537,2,35,-811,570,-45,0,-53,-19,370,-597,-178
6538,2,35,-810,563,-39,7,-63,-13,366,-619,-181
6540,2,35,-821,540,-20,-15,-15,-28,321,-682,-195
6542,2,35,-836,546,-35,-22,-24,-39,265,-789,-211
6544,2,35,-826,554,-48,-12,-14,-53,163,-895,-210
6545,2,35,-836,530,-23,-16,14,-68,99,-937,-213
6547,2,35,-833,532,-37,-13,-33,-74,-64,-985,-202
6549,2,35,-831,542,-48,-14,-56,-62,-274,-993,-174
6551,2,35,-847,503,-24,-20,-56,-62,-433,-927,-121
6552,2,35,-835,509,-25,-15,-79,-53,-502,-883,-96
6554,2,35,-859,502,-5,0,-80,-69,-627,-766,-49
6556,2,35,-878,437,7,-17,-23,-136,-733,-618,31
6558,2,35,-885,436,-11,-18,-4,-206,-820,-403,132
6559,2,35,-875,450,-24,-11,-25,-214,-834,-280,163
6561,2,35,-865,469,-12,-11,3,-180,-814,-111,228
6563,2,35,-920,385,-24,-14,-18,-132,-781,-10,249
6565,2,35,-911,357,-5,-8,-67,-146,-745,58,276
6566,2,35,-913,360,-3,-11,-58,-163,-730,97,280
6568,2,35,-926,338,-7,-1,-25,-153,-684,144,288
6570,2,35,-934,289,2,16,-6,-161,-657,171,307
6572,2,35,-957,266,-25,20,6,-202,-624,210,316
6573,2,35,-964,243,-25,12,-15,-207,-601,220,316
6575,2,35,-962,225,-33,14,-90,-228,-571,247,324
6577,2,35,-965,200,8,16,-135,-211,-541,268,315
6579,2,35,-965,166,50,23,-85,-182,-507,289,312
6580,2,35,-950,155,44,24,-13,-185,-501,283,319
6582,2,35,-978,108,15,23,68,-202,-481,298,324
6584,2,35,-988,71,-11,16,105,-214,-454,301,339
6586,2,35,-1000,42,-33,3,79,-206,-439,318,345
6587,2,35,-997,5,-42,4,25,-190,-427,324,348
6589,2,35,-1006,-21,-32,6,6,-237,-406,331,354
6590,2,35,-998,-7,-65,31,-103,-233,-399,343,352
6627,2,36,-970,-92,-187,-5,-18,-1,-363,351,411
6629,2,36,-971,-92,-186,-7,-18,0,-369,349,411
6631,2,36,-968,-91,-190,-5,-20,0,-373,354,417
6633,2,36,-970,-93,-191,-7,-18,0,-370,343,415
6635,2,36,-968,-92,-189,-6,-18,-1,-379,345,414
6637,2,36,-971,-91,-192,-6,-20,-1,-370,348,414
6639,2,36,-969,-91,-190,-5,-21,0,-373,352,411
6641,2,36,-969,-92,-193,-4,-23,0,-375,355,411
6643,2,36,-970,-91,-194,-5,-22,0,-375,352,415
6645,2,36,-970,-92,-195,-5,-21,0,-379,349,417
6647,2,36,-970,-92,-196,-4,-24,0,-369,348,424
6649,2,36,-968,-92,-195,-4,-23,0,-378,346,420
6651,2,36,-970,-92,-195,-4,-23,0,-379,352,412
6653,2,36,-969,-92,-195,-6,-19,0,-369,346,417
6655,2,36,-968,-93,-198,-5,-14,0,-373,342,418
6657,2,36,-968,-92,-199,-6,-18,0,-366,345,415
6658,2,36,-968,-92,-201,-5,-21,0,-369,346,415
6660,2,36,-967,-93,-201,-4,-23,0,-364,351,421
6662,2,36,-970,-92,-200,-4,-23,0,-366,342,421
6664,2,36,-969,-91,-200,-4,-27,0,-366,349,421
6666,2,36,-968,-92,-201,-4,-25,0,-376,343,417
6668,2,36,-969,-91,-201,-4,-25,0,-358,352,426
6670,2,36,-968,-92,-200,-4,-25,0,-375,349,418
6672,2,36,-968,-91,-201,-4,-23,0,-370,354,423
6674,2,36,-967,-93,-202,-4,-25,0,-363,349,418
6676,2,36,-968,-92,-200,-4,-25,0,-361,346,421
6678,2,36,-968,-93,-200,-4,-25,0,-375,342,426
6680,2,36,-968,-92,-201,-4,-27,0,-373,340,420
6682,2,36,-969,-91,-203,-3,-30,0,-369,349,411
6684,2,36,-969,-93,-205,-2,-47,3,-370,349,418
6686,2,36,-971,-90,-195,0,-51,5,-363,345,418
6688,2,36,-963,-91,-180,0,-38,2,-379,355,417
6690,2,36,-979,-88,-196,-4,-65,22,-367,342,409
6692,2,36,-963,-79,-170,-7,-77,46,-379,355,406
6694,2,36,-974,-73,-185,-22,-4,81,-378,345,412
6696,2,36,-997,-42,-195,-12,-67,161,-391,343,408
6698,2,36,-964,13,-171,-21,-131,245,-417,330,394
6700,2,36,-987,59,-147,-37,-107,259,-442,324,387
6702,2,36,-970,76,-135,-40,-91,220,-466,316,390
6704,2,36,-972,110,-133,-39,-93,200,-484,303,372
6706,2,36,-969,166,-113,-50,-54,192,-516,291,378
6708,2,36,-965,212,-98,-50,-20,207,-553,274,366
6710,2,36,-950,255,-110,-60,-4,265,-579,256,360
6712,2,36,-958,274,-130,-65,-9,301,-637,219,337
6714,2,36,-925,269,-106,-37,-53,248,-700,156,315
6716,2,36,-941,315,-112,-31,-42,174,-754,72,283
6718,2,36,-908,384,-94,-23,-68,143,-795,13,249
6720,2,36,-894,406,-83,-23,-70,151,-829,-96,208
6721,2,36,-895,419,-93,-31,-69,153,-843,-153,192
6723,2,36,-881,445,-88,-18,-107,165,-831,-309,121
6725,2,36,-873,469,-57,-8,-105,171,-777,-501,36
6727,2,36,-847,498,-48,-14,-105,177,-603,-696,-73
6729,2,36,-852,510,-38,-12,-89,170,-328,-805,-141
6731,2,36,-842,517,-19,-8,-70,152,-30,-778,-178
6733,2,36,-812,533,-23,-7,-81,126,193,-612,-148
6735,2,36,-808,547,-21,-11,-45,96,280,-399,-93
6737,2,36,-806,567,-11,18,-58,51,295,-253,-39
6739,2,36,-798,586,-6,12,-13,55,285,-148,-10
6741,2,36,-811,544,-12,11,-11,28,264,-57,27
6743,2,36,-778,575,-13,20,-64,-19,301,-76,21
6745,2,36,-792,605,-22,4,-8,-18,360,-142,-16
